target_x,target_y,rotation,trials.thisRepN,trials.thisTrialN,trials.thisN,trials.thisIndex,baseline_trials.thisRepN,baseline_trials.thisTrialN,baseline_trials.thisN,baseline_trials.thisIndex,blocks.thisRepN,blocks.thisTrialN,blocks.thisN,blocks.thisIndex,block_trials.thisRepN,block_trials.thisTrialN,block_trials.thisN,block_trials.thisIndex,transfer_trials.thisRepN,transfer_trials.thisTrialN,transfer_trials.thisN,transfer_trials.thisIndex,Welcome.started,Welcome.stopped,mouse.started,mouse.stopped,text_3.started,text_3.stopped,mouse_6.started,mouse_6.stopped,baseline_enclosing_1.started,baseline_enclosing_1.stopped,baseline_enclosing.started,baseline_enclosing.stopped,baseline_target.started,baseline_target.stopped,baseline_fixation.started,baseline_fixation.stopped,baseline_mouse.x,baseline_mouse.y,baseline_mouse.leftButton,baseline_mouse.midButton,baseline_mouse.rightButton,baseline_mouse.time,baseline_mouse.started,baseline_mouse.stopped,baseline_enclosing_feedback_1.started,baseline_enclosing_feedback_1.stopped,baseline_enclosing_feedback.started,baseline_enclosing_feedback.stopped,baseline_target_feedback.started,baseline_target_feedback.stopped,baseline_fixation_feedback.started,baseline_fixation_feedback.stopped,baseline_score_text.started,baseline_score_text.stopped,text_2.started,text_2.stopped,mouse_3.started,mouse_3.stopped,rotated_enclosing_1.started,rotated_enclosing_1.stopped,rotated_enclosing.started,rotated_enclosing.stopped,rotated_target.started,rotated_target.stopped,rotated_fixation.started,rotated_fixation.stopped,rotated_mouse.x,rotated_mouse.y,rotated_mouse.leftButton,rotated_mouse.midButton,rotated_mouse.rightButton,rotated_mouse.time,rotated_mouse.started,rotated_mouse.stopped,rotated_enclosing_feedback_1.started,rotated_enclosing_feedback_1.stopped,rotated_enclosing_feedback.started,rotated_enclosing_feedback.stopped,rotated_target_feedback.started,rotated_target_feedback.stopped,rotated_fixation_feedback.started,rotated_fixation_feedback.stopped,rotated_score_text.started,rotated_score_text.stopped,rotated_breaks.started,rotated_breaks.stopped,mouse_5.started,mouse_5.stopped,transfer_enclosing_1.started,transfer_enclosing_1.stopped,transfer_enclosing.started,transfer_enclosing.stopped,transfer_target.started,transfer_target.stopped,transfer_fixation.started,transfer_fixation.stopped,transfer_mouse.x,transfer_mouse.y,transfer_mouse.leftButton,transfer_mouse.midButton,transfer_mouse.rightButton,transfer_mouse.time,transfer_mouse.started,transfer_mouse.stopped,transfer_enclosing_feedback_1.started,transfer_enclosing_feedback_1.stopped,transfer_enclosing_feedback.started,transfer_enclosing_feedback.stopped,transfer_target_feedback.started,transfer_target_feedback.stopped,transfer_fixation_feedback.started,transfer_fixation_feedback.stopped,text_4.started,text_4.stopped,participant,session,date,expName,psychopyVersion,frameRate,
,,,,,,,,,,,,,,,,,,,,,,,12.487010199998622,None,0.0024462399596814066,None,,,,,,,,,,,,,,,,,,,,,,,,,,,,,,,,,,,,,,,,,,,,,,,,,,,,,,,,,,,,,,,,,,,,,,,,,,,,,,,,,,,,,,,,,,,0,001,2020_Oct_14_1342,vm_20xx,2020.2.4,59.71158112132848,
,,,,,,,,,,,,,,,,,,,,,,,,,,,15.203946800000267,None,1.004523040013737,None,,,,,,,,,,,,,,,,,,,,,,,,,,,,,,,,,,,,,,,,,,,,,,,,,,,,,,,,,,,,,,,,,,,,,,,,,,,,,,,,,,,,,,,0,001,2020_Oct_14_1342,vm_20xx,2020.2.4,59.71158112132848,
-0.3,0.3,0,,,,,0,0,0,5,,,,,,,,,,,,,,,,,,,,,19.365059699994163,None,19.365059699994163,None,20.16427449999901,None,19.365059699994163,None,"[-0.15555555555555556, -0.15555555555555556, 0.0, 0.0, 0.0, 0.0, 0.0, 0.0, 0.0, 0.0, 0.0, 0.0, 0.0, 0.0, 0.0, 0.0, 0.0, 0.0, 0.0, 0.0, 0.0, 0.0, 0.0, 0.0, 0.0, 0.0, 0.0, 0.0, 0.0, 0.0, 0.0, 0.0, 0.0, 0.0, 0.0, 0.0, 0.0, 0.0, 0.0, 0.0, 0.0, 0.0, 0.0, 0.0, 0.0, 0.0, 0.0, 0.0, 0.0, 0.0]","[0.1, 0.1, 0.0, 0.0, 0.0, 0.0, 0.0, 0.0, 0.0, 0.0, 0.0, 0.0, 0.0, 0.0, 0.0, 0.0, 0.0, 0.0, 0.0, 0.0, 0.0, 0.0, 0.0, 0.0, 0.0, 0.0, 0.0, 0.0, 0.0, 0.0, 0.0, 0.0, 0.0, 0.0, 0.0, 0.0, 0.0, 0.0, 0.0, 0.0, 0.0, 0.0, 0.0, 0.0, 0.0, 0.0, 0.0, 0.0, 0.0, 0.0]","[1, 1, 0, 0, 0, 0, 0, 0, 0, 0, 0, 0, 0, 0, 0, 0, 0, 0, 0, 0, 0, 0, 0, 0, 0, 0, 0, 0, 0, 0, 0, 0, 0, 0, 0, 0, 0, 0, 0, 0, 0, 0, 0, 0, 0, 0, 0, 0, 0, 0]","[0, 0, 0, 0, 0, 0, 0, 0, 0, 0, 0, 0, 0, 0, 0, 0, 0, 0, 0, 0, 0, 0, 0, 0, 0, 0, 0, 0, 0, 0, 0, 0, 0, 0, 0, 0, 0, 0, 0, 0, 0, 0, 0, 0, 0, 0, 0, 0, 0, 0]","[0, 0, 0, 0, 0, 0, 0, 0, 0, 0, 0, 0, 0, 0, 0, 0, 0, 0, 0, 0, 0, 0, 0, 0, 0, 0, 0, 0, 0, 0, 0, 0, 0, 0, 0, 0, 0, 0, 0, 0, 0, 0, 0, 0, 0, 0, 0, 0, 0, 0]","[0.0003192000003764406, 0.012377799997921102, 0.030302500003017485, 0.04716050000570249, 0.06375690001004841, 0.0797486000083154, 0.09631059999810532, 0.1131115000025602, 0.13002219999907538, 0.14664070001163054, 0.16299270000308752, 0.17997990000003483, 0.1970010000077309, 0.2128802000079304, 0.22981620000791736, 0.24616450000030454, 0.2628502000006847, 0.2796080999978585, 0.29605370000354014, 0.3132464000082109, 0.32989829999860376, 0.3462380999990273, 0.3627987000072608, 0.3798986000037985, 0.39603240000724327, 0.41335410000465345, 0.429996899998514, 0.44638200000918005, 0.462770800004364, 0.47941140001057647, 0.49580830000923015, 0.5128676000022097, 0.5294118000019807, 0.5460622000100557, 0.5631053000106476, 0.5792752999986988, 0.595957500001532, 0.612629499999457, 0.629817599998205, 0.6457999999984168, 0.6625702000019373, 0.6798522000026423, 0.6959614000079455, 0.7124401000037324, 0.7293956000066828, 0.7457001000002492, 0.762508900006651, 0.7790639000013471, 0.7958843000087654, 0.8122379999986151]",0.012118319995352067,0.8406618199951481,20.985545799994725,None,20.985545799994725,None,20.985545799994725,None,20.985545799994725,21.49657709999883,20.985545799994725,None,,,,,,,,,,,,,,,,,,,,,,,,,,,,,,,,,,,,,,,,,,,,,,,,,,,,,,,,,,,,,0,001,2020_Oct_14_1342,vm_20xx,2020.2.4,59.71158112132848,
0.3,-0.3,0,,,,,0,1,1,3,,,,,,,,,,,,,,,,,,,,,21.966892999989795,None,21.966892999989795,None,22.69538219999231,None,21.966892999989795,None,"[0.0, 0.0, 0.0, 0.0, 0.0, 0.0, 0.0, 0.0, 0.0, 0.0, 0.0, 0.0, 0.0, 0.0, 0.0, 0.0, 0.0, 0.0, 0.0, 0.0, 0.0, 0.0, 0.0, 0.0, 0.0, 0.0, 0.0, 0.0, 0.0, 0.0, 0.0, 0.0, 0.0, 0.0, 0.0, 0.0, 0.0, 0.0, 0.0, 0.0, 0.0, 0.0, 0.0, 0.0, 0.0, 0.0]","[0.0, 0.0, 0.0, 0.0, 0.0, 0.0, 0.0, 0.0, 0.0, 0.0, 0.0, 0.0, 0.0, 0.0, 0.0, 0.0, 0.0, 0.0, 0.0, 0.0, 0.0, 0.0, 0.0, 0.0, 0.0, 0.0, 0.0, 0.0, 0.0, 0.0, 0.0, 0.0, 0.0, 0.0, 0.0, 0.0, 0.0, 0.0, 0.0, 0.0, 0.0, 0.0, 0.0, 0.0, 0.0, 0.0]","[0, 0, 0, 0, 0, 0, 0, 0, 0, 0, 0, 0, 0, 0, 0, 0, 0, 0, 0, 0, 0, 0, 0, 0, 0, 0, 0, 0, 0, 0, 0, 0, 0, 0, 0, 0, 0, 0, 0, 0, 0, 0, 0, 0, 0, 0]","[0, 0, 0, 0, 0, 0, 0, 0, 0, 0, 0, 0, 0, 0, 0, 0, 0, 0, 0, 0, 0, 0, 0, 0, 0, 0, 0, 0, 0, 0, 0, 0, 0, 0, 0, 0, 0, 0, 0, 0, 0, 0, 0, 0, 0, 0]","[0, 0, 0, 0, 0, 0, 0, 0, 0, 0, 0, 0, 0, 0, 0, 0, 0, 0, 0, 0, 0, 0, 0, 0, 0, 0, 0, 0, 0, 0, 0, 0, 0, 0, 0, 0, 0, 0, 0, 0, 0, 0, 0, 0, 0, 0]","[0.0003122000052826479, 0.014059900000574999, 0.029285900003742427, 0.04293199999665376, 0.05973269999958575, 0.07633680000435561, 0.09310080000432208, 0.10999540000921115, 0.12684450000233483, 0.14288919999671634, 0.15958360000513494, 0.17645630000333767, 0.19293089999700896, 0.2094922999967821, 0.22628020000411198, 0.24285120000422467, 0.2595789000042714, 0.27599470000131987, 0.2929994000005536, 0.3100862999999663, 0.3260759999975562, 0.3429662999988068, 0.35957680000865366, 0.3761393000022508, 0.392753599997377, 0.40941790000943, 0.42588350000733044, 0.44273530000646133, 0.45936340000480413, 0.476050800003577, 0.49261820000538137, 0.5093444000085583, 0.5258994000032544, 0.5426955000002636, 0.5593525000003865, 0.5757718000095338, 0.5925507000065409, 0.6092242000013357, 0.6259412000072189, 0.642505900003016, 0.6594481000065571, 0.67579900000419, 0.6924727000005078, 0.7091395000024932, 0.7257438000087859, 0.7425270000094315]",0.009034840011736378,0.7674946400074987,23.548108799994225,None,23.548108799994225,None,23.548108799994225,None,23.548108799994225,24.06082400000014,23.548108799994225,None,,,,,,,,,,,,,,,,,,,,,,,,,,,,,,,,,,,,,,,,,,,,,,,,,,,,,,,,,,,,,0,001,2020_Oct_14_1342,vm_20xx,2020.2.4,59.71158112132848,
0.3,-0.3,0,,,,,0,2,2,15,,,,,,,,,,,,,,,,,,,,,24.547002399995108,None,24.547002399995108,None,25.875806700001704,None,24.547002399995108,None,"[0.0, 0.0, 0.0, 0.0, 0.0, 0.0, 0.0, 0.0, 0.0, 0.0, 0.0, 0.0, 0.0, 0.0, 0.0, 0.0, 0.0, 0.0, 0.0, 0.0, 0.0, 0.0, 0.0, 0.0, 0.0, 0.0, 0.0, 0.0, 0.0, 0.0, 0.0, 0.0, 0.0, 0.0, 0.0, 0.0, 0.0, 0.0, 0.0, 0.0, 0.0, 0.0, 0.0, 0.0, 0.0, 0.0, 0.0, 0.0, 0.0, 0.0, 0.0, 0.0, 0.0, 0.0, 0.0, 0.0, 0.0, 0.0, 0.0, 0.0, 0.0, 0.0, 0.0, 0.0, 0.0, 0.0, 0.0, 0.0, 0.0, 0.0, 0.0, 0.0, 0.0, 0.0, 0.0, 0.0, 0.0, 0.0, 0.0, 0.0, 0.0]","[0.0, 0.0, 0.0, 0.0, 0.0, 0.0, 0.0, 0.0, 0.0, 0.0, 0.0, 0.0, 0.0, 0.0, 0.0, 0.0, 0.0, 0.0, 0.0, 0.0, 0.0, 0.0, 0.0, 0.0, 0.0, 0.0, 0.0, 0.0, 0.0, 0.0, 0.0, 0.0, 0.0, 0.0, 0.0, 0.0, 0.0, 0.0, 0.0, 0.0, 0.0, 0.0, 0.0, 0.0, 0.0, 0.0, 0.0, 0.0, 0.0, 0.0, 0.0, 0.0, 0.0, 0.0, 0.0, 0.0, 0.0, 0.0, 0.0, 0.0, 0.0, 0.0, 0.0, 0.0, 0.0, 0.0, 0.0, 0.0, 0.0, 0.0, 0.0, 0.0, 0.0, 0.0, 0.0, 0.0, 0.0, 0.0, 0.0, 0.0, 0.0]","[0, 0, 0, 0, 0, 0, 0, 0, 0, 0, 0, 0, 0, 0, 0, 0, 0, 0, 0, 0, 0, 0, 0, 0, 0, 0, 0, 0, 0, 0, 0, 0, 0, 0, 0, 0, 0, 0, 0, 0, 0, 0, 0, 0, 0, 0, 0, 0, 0, 0, 0, 0, 0, 0, 0, 0, 0, 0, 0, 0, 0, 0, 0, 0, 0, 0, 0, 0, 0, 0, 0, 0, 0, 0, 0, 0, 0, 0, 0, 0, 0]","[0, 0, 0, 0, 0, 0, 0, 0, 0, 0, 0, 0, 0, 0, 0, 0, 0, 0, 0, 0, 0, 0, 0, 0, 0, 0, 0, 0, 0, 0, 0, 0, 0, 0, 0, 0, 0, 0, 0, 0, 0, 0, 0, 0, 0, 0, 0, 0, 0, 0, 0, 0, 0, 0, 0, 0, 0, 0, 0, 0, 0, 0, 0, 0, 0, 0, 0, 0, 0, 0, 0, 0, 0, 0, 0, 0, 0, 0, 0, 0, 0]","[0, 0, 0, 0, 0, 0, 0, 0, 0, 0, 0, 0, 0, 0, 0, 0, 0, 0, 0, 0, 0, 0, 0, 0, 0, 0, 0, 0, 0, 0, 0, 0, 0, 0, 0, 0, 0, 0, 0, 0, 0, 0, 0, 0, 0, 0, 0, 0, 0, 0, 0, 0, 0, 0, 0, 0, 0, 0, 0, 0, 0, 0, 0, 0, 0, 0, 0, 0, 0, 0, 0, 0, 0, 0, 0, 0, 0, 0, 0, 0, 0]","[0.000335000004270114, 0.014288099991972558, 0.028950599997187965, 0.044000099995173514, 0.06177489999390673, 0.07778350000444334, 0.09398109999892768, 0.11076060000050347, 0.1274206999951275, 0.1440437999990536, 0.16070120000222232, 0.17716779999318533, 0.19388659999822266, 0.21057189999555703, 0.22726299999339972, 0.24407819999032654, 0.2604982999910135, 0.2770278999960283, 0.29389739999896847, 0.31041459999687504, 0.3270543999969959, 0.3438017000007676, 0.3605055999942124, 0.37724649999290705, 0.39399899999261834, 0.4102792999910889, 0.42695029999595135, 0.4437173999904189, 0.4602344000013545, 0.47704589999921154, 0.49357160000363365, 0.5102833999990253, 0.526846699998714, 0.5434912999917287, 0.5601344000024255, 0.5769904000044335, 0.5935518000042066, 0.6102117999980692, 0.6268664999952307, 0.6433055999950739, 0.6601854000036838, 0.6767916999961017, 0.6934269999910612, 0.7100598999968497, 0.7267109999957029, 0.7434288999938872, 0.760612999991281, 0.7766114999976708, 0.7933320000011008, 0.809985300002154, 0.8266509999957634, 0.8435909999971045, 0.8598944999976084, 0.8766528999985894, 0.8933564000035403, 0.9098967000027187, 0.9265460000024177, 0.9434656999947038, 0.9598401999974158, 0.976541800002451, 0.9932159000018146, 1.0098813999939011, 1.0264311999926576, 1.0430932000017492, 1.0598237999947742, 1.0764330999954836, 1.0929701999993995, 1.109756899997592, 1.1262993999989703, 1.1435132000042358, 1.1596914999972796, 1.176578700004029, 1.192935300001409, 1.2096098999900278, 1.2263532999932067, 1.2429784999985714, 1.259692499996163, 1.2762297000008402, 1.2927787999942666, 1.309399999998277, 1.3263021000020672]",0.009801539999898523,1.3521490400016773,26.716581400003633,None,26.716581400003633,None,26.716581400003633,None,26.716581400003633,27.22433669999009,26.716581400003633,None,,,,,,,,,,,,,,,,,,,,,,,,,,,,,,,,,,,,,,,,,,,,,,,,,,,,,,,,,,,,,0,001,2020_Oct_14_1342,vm_20xx,2020.2.4,59.71158112132848,
-0.3,-0.3,0,,,,,0,3,3,14,,,,,,,,,,,,,,,,,,,,,27.726897999993525,None,27.726897999993525,None,28.889603299990995,None,27.726897999993525,None,"[0.0, 0.0, 0.0, 0.0, 0.0, 0.0, 0.0, 0.0, 0.0, 0.0, 0.0, 0.0, 0.0, 0.0, 0.0, 0.0, 0.0, 0.0, 0.0, 0.0, 0.0, 0.0, 0.0, 0.0, 0.0, 0.0, 0.0, 0.0, 0.0, 0.0, 0.0, 0.0, 0.0, 0.0, 0.0, 0.0, 0.0, 0.0, 0.0, 0.0, 0.0, 0.0, 0.0, 0.0, 0.0, 0.0, 0.0, 0.0, 0.0, 0.0, 0.0, 0.0, 0.0, 0.0, 0.0, 0.0, 0.0, 0.0, 0.0, 0.0, 0.0, 0.0, 0.0, 0.0, 0.0, 0.0, 0.0, 0.0, 0.0, 0.0, 0.0, 0.0]","[0.0, 0.0, 0.0, 0.0, 0.0, 0.0, 0.0, 0.0, 0.0, 0.0, 0.0, 0.0, 0.0, 0.0, 0.0, 0.0, 0.0, 0.0, 0.0, 0.0, 0.0, 0.0, 0.0, 0.0, 0.0, 0.0, 0.0, 0.0, 0.0, 0.0, 0.0, 0.0, 0.0, 0.0, 0.0, 0.0, 0.0, 0.0, 0.0, 0.0, 0.0, 0.0, 0.0, 0.0, 0.0, 0.0, 0.0, 0.0, 0.0, 0.0, 0.0, 0.0, 0.0, 0.0, 0.0, 0.0, 0.0, 0.0, 0.0, 0.0, 0.0, 0.0, 0.0, 0.0, 0.0, 0.0, 0.0, 0.0, 0.0, 0.0, 0.0, 0.0]","[0, 0, 0, 0, 0, 0, 0, 0, 0, 0, 0, 0, 0, 0, 0, 0, 0, 0, 0, 0, 0, 0, 0, 0, 0, 0, 0, 0, 0, 0, 0, 0, 0, 0, 0, 0, 0, 0, 0, 0, 0, 0, 0, 0, 0, 0, 0, 0, 0, 0, 0, 0, 0, 0, 0, 0, 0, 0, 0, 0, 0, 0, 0, 0, 0, 0, 0, 0, 0, 0, 0, 0]","[0, 0, 0, 0, 0, 0, 0, 0, 0, 0, 0, 0, 0, 0, 0, 0, 0, 0, 0, 0, 0, 0, 0, 0, 0, 0, 0, 0, 0, 0, 0, 0, 0, 0, 0, 0, 0, 0, 0, 0, 0, 0, 0, 0, 0, 0, 0, 0, 0, 0, 0, 0, 0, 0, 0, 0, 0, 0, 0, 0, 0, 0, 0, 0, 0, 0, 0, 0, 0, 0, 0, 0]","[0, 0, 0, 0, 0, 0, 0, 0, 0, 0, 0, 0, 0, 0, 0, 0, 0, 0, 0, 0, 0, 0, 0, 0, 0, 0, 0, 0, 0, 0, 0, 0, 0, 0, 0, 0, 0, 0, 0, 0, 0, 0, 0, 0, 0, 0, 0, 0, 0, 0, 0, 0, 0, 0, 0, 0, 0, 0, 0, 0, 0, 0, 0, 0, 0, 0, 0, 0, 0, 0, 0, 0]","[0.00032839999767020345, 0.014737999998033047, 0.028722099988954142, 0.04484829999273643, 0.061756199997034855, 0.0782747999910498, 0.09493899998778943, 0.11162879999028519, 0.1282360999903176, 0.1447786999924574, 0.1613760999898659, 0.17825549999543, 0.1950547999877017, 0.2114549999969313, 0.2281063999980688, 0.244896999996854, 0.2617380999872694, 0.2782228999858489, 0.29486299998825416, 0.3113281999976607, 0.3280355999886524, 0.34461969998665154, 0.3615037999988999, 0.3780829999886919, 0.39458019999437965, 0.41122229999746196, 0.4279616999992868, 0.4444062999973539, 0.4612203999859048, 0.4786483999923803, 0.49450879999494646, 0.5121794999868143, 0.5278627999941818, 0.5445602999971015, 0.56119029999536, 0.5778782999987016, 0.5944877000001725, 0.6111300999909872, 0.6277708999987226, 0.6443418999988353, 0.6611783999978798, 0.6777583999937633, 0.694425699999556, 0.7112115999916568, 0.7277838999871165, 0.7443653999944218, 0.7609062999981688, 0.7776908999949228, 0.7942725999891991, 0.8108785999938846, 0.8275450999935856, 0.844259499994223, 0.8608962999860523, 0.8778005999920424, 0.8940610999998171, 0.9108260999928461, 0.927457300000242, 0.9444389999989653, 0.9607928999903379, 0.9775668999936897, 0.9941827999864472, 1.0107424999878276, 1.0272727999981726, 1.0439293999952497, 1.0607384999893839, 1.077365599994664, 1.09395759999461, 1.1106992999993963, 1.1273302999907173, 1.1438759999873582, 1.1607399999920744, 1.1773140999866882]",0.01087243999063503,1.2040042399894446,29.734620799994445,None,29.734620799994445,None,29.734620799994445,None,29.734620799994445,30.23812189999444,29.734620799994445,None,,,,,,,,,,,,,,,,,,,,,,,,,,,,,,,,,,,,,,,,,,,,,,,,,,,,,,,,,,,,,0,001,2020_Oct_14_1342,vm_20xx,2020.2.4,59.71158112132848,
0.3,0.3,0,,,,,0,4,4,8,,,,,,,,,,,,,,,,,,,,,30.724199999996927,None,30.724199999996927,None,31.30398719999357,None,30.724199999996927,None,"[0.0, 0.0, 0.0, 0.0, 0.0, 0.0, 0.0, 0.0, 0.0, 0.0, 0.0, 0.0, 0.0, 0.0, 0.0, 0.0, 0.0, 0.0, 0.0, 0.0, 0.0, 0.0, 0.0, 0.0, 0.0, 0.0, 0.0, 0.0, 0.0, 0.0, 0.0, 0.0, 0.0, 0.0, 0.0, 0.0, 0.0]","[0.0, 0.0, 0.0, 0.0, 0.0, 0.0, 0.0, 0.0, 0.0, 0.0, 0.0, 0.0, 0.0, 0.0, 0.0, 0.0, 0.0, 0.0, 0.0, 0.0, 0.0, 0.0, 0.0, 0.0, 0.0, 0.0, 0.0, 0.0, 0.0, 0.0, 0.0, 0.0, 0.0, 0.0, 0.0, 0.0, 0.0]","[0, 0, 0, 0, 0, 0, 0, 0, 0, 0, 0, 0, 0, 0, 0, 0, 0, 0, 0, 0, 0, 0, 0, 0, 0, 0, 0, 0, 0, 0, 0, 0, 0, 0, 0, 0, 0]","[0, 0, 0, 0, 0, 0, 0, 0, 0, 0, 0, 0, 0, 0, 0, 0, 0, 0, 0, 0, 0, 0, 0, 0, 0, 0, 0, 0, 0, 0, 0, 0, 0, 0, 0, 0, 0]","[0, 0, 0, 0, 0, 0, 0, 0, 0, 0, 0, 0, 0, 0, 0, 0, 0, 0, 0, 0, 0, 0, 0, 0, 0, 0, 0, 0, 0, 0, 0, 0, 0, 0, 0, 0, 0]","[0.00031379998836200684, 0.014298299996880814, 0.028345099999569356, 0.04429659999732394, 0.06112030000076629, 0.07759219998843037, 0.09445609999238513, 0.11099209998792503, 0.1276406999968458, 0.14425099999061786, 0.16098129999591038, 0.17751519999001175, 0.19424559999606572, 0.21164609999686945, 0.22746499998902436, 0.2443007999972906, 0.2608204999996815, 0.27792359999148175, 0.29413449999992736, 0.310640899988357, 0.32737400000041816, 0.34399629999825265, 0.3609960999892792, 0.3777117999998154, 0.3942065999872284, 0.41073549998691306, 0.42728859999624547, 0.44396569998934865, 0.46061439999903087, 0.47714869999617804, 0.4940349999960745, 0.5111837999866111, 0.5272859999968205, 0.5440232999972068, 0.5607591999869328, 0.5772371999919415, 0.593906899986905]",0.010276540007907897,0.6201565400115214,32.27291400000104,None,32.27291400000104,None,32.27291400000104,None,32.27291400000104,32.78564309999638,32.27291400000104,None,,,,,,,,,,,,,,,,,,,,,,,,,,,,,,,,,,,,,,,,,,,,,,,,,,,,,,,,,,,,,0,001,2020_Oct_14_1342,vm_20xx,2020.2.4,59.71158112132848,
-0.3,-0.3,0,,,,,0,5,5,10,,,,,,,,,,,,,,,,,,,,,33.272467699993285,None,33.272467699993285,None,33.884889099994325,None,33.272467699993285,None,"[0.0, 0.0, 0.0, 0.0, 0.0, 0.0, 0.0, 0.0, 0.0, 0.0, 0.0, 0.0, 0.0, 0.0, 0.0, 0.0, 0.0, 0.0, 0.0, 0.0, 0.0, 0.0, 0.0, 0.0, 0.0, 0.0, 0.0, 0.0, 0.0, 0.0, 0.0, 0.0, 0.0, 0.0, 0.0, 0.0, 0.0, 0.0, 0.0]","[0.0, 0.0, 0.0, 0.0, 0.0, 0.0, 0.0, 0.0, 0.0, 0.0, 0.0, 0.0, 0.0, 0.0, 0.0, 0.0, 0.0, 0.0, 0.0, 0.0, 0.0, 0.0, 0.0, 0.0, 0.0, 0.0, 0.0, 0.0, 0.0, 0.0, 0.0, 0.0, 0.0, 0.0, 0.0, 0.0, 0.0, 0.0, 0.0]","[0, 0, 0, 0, 0, 0, 0, 0, 0, 0, 0, 0, 0, 0, 0, 0, 0, 0, 0, 0, 0, 0, 0, 0, 0, 0, 0, 0, 0, 0, 0, 0, 0, 0, 0, 0, 0, 0, 0]","[0, 0, 0, 0, 0, 0, 0, 0, 0, 0, 0, 0, 0, 0, 0, 0, 0, 0, 0, 0, 0, 0, 0, 0, 0, 0, 0, 0, 0, 0, 0, 0, 0, 0, 0, 0, 0, 0, 0]","[0, 0, 0, 0, 0, 0, 0, 0, 0, 0, 0, 0, 0, 0, 0, 0, 0, 0, 0, 0, 0, 0, 0, 0, 0, 0, 0, 0, 0, 0, 0, 0, 0, 0, 0, 0, 0, 0, 0]","[0.0003133999998681247, 0.016265199999907054, 0.031132100004469976, 0.04521740000927821, 0.06175470000016503, 0.07844749999640044, 0.09481140000571031, 0.1119505999959074, 0.12831699999514967, 0.1451865999988513, 0.16168400000606198, 0.1784135000052629, 0.19485690000874456, 0.21193520000088029, 0.22823710000375286, 0.24509920000855345, 0.26152379999984987, 0.2781708999973489, 0.29524720000335947, 0.3114616999955615, 0.3281284999975469, 0.3447340999991866, 0.361487300004228, 0.3781511999986833, 0.3946105000068201, 0.4114741000084905, 0.4280888000066625, 0.44465520000085235, 0.4616587000055006, 0.478010799997719, 0.4946572000044398, 0.5116357000079006, 0.5279468000080669, 0.5445604999986244, 0.5610713000060059, 0.5780264000059105, 0.5944174000032945, 0.611262499995064, 0.6282716999994591]",0.01088064000941813,0.6547009400092065,34.83704269998998,None,34.83704269998998,None,34.83704269998998,None,34.83704269998998,35.35003020000295,34.83704269998998,None,,,,,,,,,,,,,,,,,,,,,,,,,,,,,,,,,,,,,,,,,,,,,,,,,,,,,,,,,,,,,0,001,2020_Oct_14_1342,vm_20xx,2020.2.4,59.71158112132848,
-0.3,0.3,0,,,,,0,6,6,1,,,,,,,,,,,,,,,,,,,,,35.835984699995606,None,35.835984699995606,None,36.88199809999787,None,35.835984699995606,None,"[0.0, 0.0, 0.0, 0.0, 0.0, 0.0, 0.0, 0.0, 0.0, 0.0, 0.0, 0.0, 0.0, 0.0, 0.0, 0.0, 0.0, 0.0, 0.0, 0.0, 0.0, 0.0, 0.0, 0.0, 0.0, 0.0, 0.0, 0.0, 0.0, 0.0, 0.0, 0.0, 0.0, 0.0, 0.0, 0.0, 0.0, 0.0, 0.0, 0.0, 0.0, 0.0, 0.0, 0.0, 0.0, 0.0, 0.0, 0.0, 0.0, 0.0, 0.0, 0.0, 0.0, 0.0, 0.0, 0.0, 0.0, 0.0, 0.0, 0.0, 0.0, 0.0, 0.0, 0.0]","[0.0, 0.0, 0.0, 0.0, 0.0, 0.0, 0.0, 0.0, 0.0, 0.0, 0.0, 0.0, 0.0, 0.0, 0.0, 0.0, 0.0, 0.0, 0.0, 0.0, 0.0, 0.0, 0.0, 0.0, 0.0, 0.0, 0.0, 0.0, 0.0, 0.0, 0.0, 0.0, 0.0, 0.0, 0.0, 0.0, 0.0, 0.0, 0.0, 0.0, 0.0, 0.0, 0.0, 0.0, 0.0, 0.0, 0.0, 0.0, 0.0, 0.0, 0.0, 0.0, 0.0, 0.0, 0.0, 0.0, 0.0, 0.0, 0.0, 0.0, 0.0, 0.0, 0.0, 0.0]","[0, 0, 0, 0, 0, 0, 0, 0, 0, 0, 0, 0, 0, 0, 0, 0, 0, 0, 0, 0, 0, 0, 0, 0, 0, 0, 0, 0, 0, 0, 0, 0, 0, 0, 0, 0, 0, 0, 0, 0, 0, 0, 0, 0, 0, 0, 0, 0, 0, 0, 0, 0, 0, 0, 0, 0, 0, 0, 0, 0, 0, 0, 0, 0]","[0, 0, 0, 0, 0, 0, 0, 0, 0, 0, 0, 0, 0, 0, 0, 0, 0, 0, 0, 0, 0, 0, 0, 0, 0, 0, 0, 0, 0, 0, 0, 0, 0, 0, 0, 0, 0, 0, 0, 0, 0, 0, 0, 0, 0, 0, 0, 0, 0, 0, 0, 0, 0, 0, 0, 0, 0, 0, 0, 0, 0, 0, 0, 0]","[0, 0, 0, 0, 0, 0, 0, 0, 0, 0, 0, 0, 0, 0, 0, 0, 0, 0, 0, 0, 0, 0, 0, 0, 0, 0, 0, 0, 0, 0, 0, 0, 0, 0, 0, 0, 0, 0, 0, 0, 0, 0, 0, 0, 0, 0, 0, 0, 0, 0, 0, 0, 0, 0, 0, 0, 0, 0, 0, 0, 0, 0, 0, 0]","[0.0003271000023232773, 0.014903300005244091, 0.02929190000577364, 0.04507920000469312, 0.061771600012434646, 0.07824360000086017, 0.09498040001199115, 0.11184010001306888, 0.1285935000050813, 0.1453730000066571, 0.16161570000986103, 0.17833770001016092, 0.19491520000156015, 0.21240230000694282, 0.22835290001239628, 0.24482380000699777, 0.26159259999985807, 0.2783495000039693, 0.2947407000028761, 0.3114988000015728, 0.3284927000058815, 0.3448616000096081, 0.3614464999991469, 0.37825350000639446, 0.3946470000082627, 0.4112759999989066, 0.4279873000050429, 0.4447441000083927, 0.4613433000049554, 0.4779619000037201, 0.4946321000024909, 0.5112213000102201, 0.527852500003064, 0.5446288000093773, 0.5612368000001879, 0.5779136000055587, 0.5945391000132076, 0.6113061000069138, 0.6279586000018753, 0.6445486000011442, 0.6610855000035372, 0.6778977000067243, 0.6943373000103747, 0.7119515000085812, 0.7278502000117442, 0.7443589000031352, 0.7611128999997163, 0.7777433000010205, 0.7942763000028208, 0.8110098000033759, 0.8277862000104506, 0.84417840000242, 0.8610495000029914, 0.877698700001929, 0.8943085000064457, 0.9110744000063278, 0.9274863000027835, 0.9441233000106877, 0.9614503000047989, 0.9780513000005158, 0.9945704999990994, 1.0113276000047335, 1.0274397000030149, 1.044429500005208]",0.010933540004771203,1.0710692400025437,37.735991199995624,None,37.735991199995624,None,37.735991199995624,None,37.735991199995624,38.24740480000037,37.735991199995624,None,,,,,,,,,,,,,,,,,,,,,,,,,,,,,,,,,,,,,,,,,,,,,,,,,,,,,,,,,,,,,0,001,2020_Oct_14_1342,vm_20xx,2020.2.4,59.71158112132848,
-0.3,0.3,0,,,,,0,7,7,13,,,,,,,,,,,,,,,,,,,,,38.734171499992954,None,38.734171499992954,None,39.263276500001666,None,38.734171499992954,None,"[0.0, 0.0, 0.0, 0.0, 0.0, 0.0, 0.0, 0.0, 0.0, 0.0, 0.0, 0.0, 0.0, 0.0, 0.0, 0.0, 0.0, 0.0, 0.0, 0.0, 0.0, 0.0, 0.0, 0.0, 0.0, 0.0, 0.0, 0.0, 0.0, 0.0, 0.0, 0.0, 0.0]","[0.0, 0.0, 0.0, 0.0, 0.0, 0.0, 0.0, 0.0, 0.0, 0.0, 0.0, 0.0, 0.0, 0.0, 0.0, 0.0, 0.0, 0.0, 0.0, 0.0, 0.0, 0.0, 0.0, 0.0, 0.0, 0.0, 0.0, 0.0, 0.0, 0.0, 0.0, 0.0, 0.0]","[0, 0, 0, 0, 0, 0, 0, 0, 0, 0, 0, 0, 0, 0, 0, 0, 0, 0, 0, 0, 0, 0, 0, 0, 0, 0, 0, 0, 0, 0, 0, 0, 0]","[0, 0, 0, 0, 0, 0, 0, 0, 0, 0, 0, 0, 0, 0, 0, 0, 0, 0, 0, 0, 0, 0, 0, 0, 0, 0, 0, 0, 0, 0, 0, 0, 0]","[0, 0, 0, 0, 0, 0, 0, 0, 0, 0, 0, 0, 0, 0, 0, 0, 0, 0, 0, 0, 0, 0, 0, 0, 0, 0, 0, 0, 0, 0, 0, 0, 0]","[0.00032810000993777066, 0.014072999998461455, 0.027998500008834526, 0.04368339999928139, 0.060379000002285466, 0.07711330000893213, 0.09361700000590645, 0.10996539999905508, 0.12701579999702517, 0.14333750000514556, 0.15997120000247378, 0.17686120000144, 0.19330929999705404, 0.20987079999758862, 0.22634839999955148, 0.24333630000182893, 0.25986679999914486, 0.2765655999974115, 0.29326180000498425, 0.30978589999722317, 0.3264925999974366, 0.3432010000105947, 0.3596543000021484, 0.3766271000058623, 0.39314960000046995, 0.4096802999993088, 0.4265179000067292, 0.44317250000312924, 0.4595407000015257, 0.4764218000054825, 0.49300159999984317, 0.5097373000025982, 0.526672599997255]",0.009294440009398386,0.5517201400070917,40.09887999999046,None,40.09887999999046,None,40.09887999999046,None,40.09887999999046,40.611939900001744,40.09887999999046,None,,,,,,,,,,,,,,,,,,,,,,,,,,,,,,,,,,,,,,,,,,,,,,,,,,,,,,,,,,,,,0,001,2020_Oct_14_1342,vm_20xx,2020.2.4,59.71158112132848,
-0.3,0.3,0,,,,,0,8,8,9,,,,,,,,,,,,,,,,,,,,,41.09964040000341,None,41.09964040000341,None,42.460129200000665,None,41.09964040000341,None,"[0.0, 0.0, 0.0, 0.0, 0.0, 0.0, 0.0, 0.0, 0.0, 0.0, 0.0, 0.0, 0.0, 0.0, 0.0, 0.0, 0.0, 0.0, 0.0, 0.0, 0.0, 0.0, 0.0, 0.0, 0.0, 0.0, 0.0, 0.0, 0.0, 0.0, 0.0, 0.0, 0.0, 0.0, 0.0, 0.0, 0.0, 0.0, 0.0, 0.0, 0.0, 0.0, 0.0, 0.0, 0.0, 0.0, 0.0, 0.0, 0.0, 0.0, 0.0, 0.0, 0.0, 0.0, 0.0, 0.0, 0.0, 0.0, 0.0, 0.0, 0.0, 0.0, 0.0, 0.0, 0.0, 0.0, 0.0, 0.0, 0.0, 0.0, 0.0, 0.0, 0.0, 0.0, 0.0, 0.0, 0.0, 0.0, 0.0, 0.0, 0.0, 0.0, 0.0, 0.0]","[0.0, 0.0, 0.0, 0.0, 0.0, 0.0, 0.0, 0.0, 0.0, 0.0, 0.0, 0.0, 0.0, 0.0, 0.0, 0.0, 0.0, 0.0, 0.0, 0.0, 0.0, 0.0, 0.0, 0.0, 0.0, 0.0, 0.0, 0.0, 0.0, 0.0, 0.0, 0.0, 0.0, 0.0, 0.0, 0.0, 0.0, 0.0, 0.0, 0.0, 0.0, 0.0, 0.0, 0.0, 0.0, 0.0, 0.0, 0.0, 0.0, 0.0, 0.0, 0.0, 0.0, 0.0, 0.0, 0.0, 0.0, 0.0, 0.0, 0.0, 0.0, 0.0, 0.0, 0.0, 0.0, 0.0, 0.0, 0.0, 0.0, 0.0, 0.0, 0.0, 0.0, 0.0, 0.0, 0.0, 0.0, 0.0, 0.0, 0.0, 0.0, 0.0, 0.0, 0.0]","[0, 0, 0, 0, 0, 0, 0, 0, 0, 0, 0, 0, 0, 0, 0, 0, 0, 0, 0, 0, 0, 0, 0, 0, 0, 0, 0, 0, 0, 0, 0, 0, 0, 0, 0, 0, 0, 0, 0, 0, 0, 0, 0, 0, 0, 0, 0, 0, 0, 0, 0, 0, 0, 0, 0, 0, 0, 0, 0, 0, 0, 0, 0, 0, 0, 0, 0, 0, 0, 0, 0, 0, 0, 0, 0, 0, 0, 0, 0, 0, 0, 0, 0, 0]","[0, 0, 0, 0, 0, 0, 0, 0, 0, 0, 0, 0, 0, 0, 0, 0, 0, 0, 0, 0, 0, 0, 0, 0, 0, 0, 0, 0, 0, 0, 0, 0, 0, 0, 0, 0, 0, 0, 0, 0, 0, 0, 0, 0, 0, 0, 0, 0, 0, 0, 0, 0, 0, 0, 0, 0, 0, 0, 0, 0, 0, 0, 0, 0, 0, 0, 0, 0, 0, 0, 0, 0, 0, 0, 0, 0, 0, 0, 0, 0, 0, 0, 0, 0]","[0, 0, 0, 0, 0, 0, 0, 0, 0, 0, 0, 0, 0, 0, 0, 0, 0, 0, 0, 0, 0, 0, 0, 0, 0, 0, 0, 0, 0, 0, 0, 0, 0, 0, 0, 0, 0, 0, 0, 0, 0, 0, 0, 0, 0, 0, 0, 0, 0, 0, 0, 0, 0, 0, 0, 0, 0, 0, 0, 0, 0, 0, 0, 0, 0, 0, 0, 0, 0, 0, 0, 0, 0, 0, 0, 0, 0, 0, 0, 0, 0, 0, 0, 0]","[0.00034330000926274806, 0.015043999999761581, 0.029613799997605383, 0.04381830000784248, 0.06008760000986513, 0.07677530001092236, 0.09349460000521503, 0.10979709999810439, 0.12651159999950323, 0.14311640000960324, 0.1600864000065485, 0.17636990000028163, 0.19312120000540745, 0.20969640000839718, 0.22631310000724625, 0.24315280000155326, 0.26006640000559855, 0.2767444000055548, 0.2930553000041982, 0.3095459000032861, 0.3260986000095727, 0.3429245000006631, 0.3593877000093926, 0.37627020000945777, 0.3928191000013612, 0.4094620000105351, 0.42613790000905283, 0.44282019999809563, 0.45936530000471976, 0.47598820000712294, 0.4926467000041157, 0.5100554000091506, 0.5260039999993751, 0.5429070000100182, 0.5595778999995673, 0.5759598000004189, 0.5925316000066232, 0.6091993000009097, 0.6258425999985775, 0.6425162000086857, 0.6592261000041617, 0.6756494000001112, 0.6926382000092417, 0.7090409000084037, 0.725826900001266, 0.7428789000114193, 0.7593734999973094, 0.7758036000013817, 0.7923607999982778, 0.8089899000042351, 0.8256305000104476, 0.8424164000025485, 0.8588108999974793, 0.8755872000037925, 0.8922448000084842, 0.9088566999998875, 0.9255066000041552, 0.9423325000097975, 0.9586986000067554, 0.9755385000025854, 0.9924561000079848, 1.0099634000071092, 1.0255220000108238, 1.0420739000110188, 1.0587317000026815, 1.0754378999990877, 1.0920763000031002, 1.109997799998382, 1.1253359999973327, 1.1420178999978816, 1.159951399997226, 1.1757416000036756, 1.1921710000024177, 1.2086162000050535, 1.2254284000082407, 1.2423815000074683, 1.25903690000996, 1.2752897000027588, 1.2920784000016283, 1.3085786000010557, 1.3269151999993483, 1.3418602000019746, 1.3589664000028279, 1.3752987000043504]",0.009186340001178905,1.4003423399990425,43.248522399997455,None,43.248522399997455,None,43.248522399997455,None,43.248522399997455,43.75881149999623,43.248522399997455,None,,,,,,,,,,,,,,,,,,,,,,,,,,,,,,,,,,,,,,,,,,,,,,,,,,,,,,,,,,,,,0,001,2020_Oct_14_1342,vm_20xx,2020.2.4,59.71158112132848,
0.3,-0.3,0,,,,,0,9,9,11,,,,,,,,,,,,,,,,,,,,,44.244467199998326,None,44.244467199998326,None,45.22402249999868,None,44.244467199998326,None,"[0.0, 0.0, 0.0, 0.0, 0.0, 0.0, 0.0, 0.0, 0.0, 0.0, 0.0, 0.0, 0.0, 0.0, 0.0, 0.0, 0.0, 0.0, 0.0, 0.0, 0.0, 0.0, 0.0, 0.0, 0.0, 0.0, 0.0, 0.0, 0.0, 0.0, 0.0, 0.0, 0.0, 0.0, 0.0, 0.0, 0.0, 0.0, 0.0, 0.0, 0.0, 0.0, 0.0, 0.0, 0.0, 0.0, 0.0, 0.0, 0.0, 0.0, 0.0, 0.0, 0.0, 0.0, 0.0, 0.0, 0.0, 0.0, 0.0, 0.0, 0.0]","[0.0, 0.0, 0.0, 0.0, 0.0, 0.0, 0.0, 0.0, 0.0, 0.0, 0.0, 0.0, 0.0, 0.0, 0.0, 0.0, 0.0, 0.0, 0.0, 0.0, 0.0, 0.0, 0.0, 0.0, 0.0, 0.0, 0.0, 0.0, 0.0, 0.0, 0.0, 0.0, 0.0, 0.0, 0.0, 0.0, 0.0, 0.0, 0.0, 0.0, 0.0, 0.0, 0.0, 0.0, 0.0, 0.0, 0.0, 0.0, 0.0, 0.0, 0.0, 0.0, 0.0, 0.0, 0.0, 0.0, 0.0, 0.0, 0.0, 0.0, 0.0]","[0, 0, 0, 0, 0, 0, 0, 0, 0, 0, 0, 0, 0, 0, 0, 0, 0, 0, 0, 0, 0, 0, 0, 0, 0, 0, 0, 0, 0, 0, 0, 0, 0, 0, 0, 0, 0, 0, 0, 0, 0, 0, 0, 0, 0, 0, 0, 0, 0, 0, 0, 0, 0, 0, 0, 0, 0, 0, 0, 0, 0]","[0, 0, 0, 0, 0, 0, 0, 0, 0, 0, 0, 0, 0, 0, 0, 0, 0, 0, 0, 0, 0, 0, 0, 0, 0, 0, 0, 0, 0, 0, 0, 0, 0, 0, 0, 0, 0, 0, 0, 0, 0, 0, 0, 0, 0, 0, 0, 0, 0, 0, 0, 0, 0, 0, 0, 0, 0, 0, 0, 0, 0]","[0, 0, 0, 0, 0, 0, 0, 0, 0, 0, 0, 0, 0, 0, 0, 0, 0, 0, 0, 0, 0, 0, 0, 0, 0, 0, 0, 0, 0, 0, 0, 0, 0, 0, 0, 0, 0, 0, 0, 0, 0, 0, 0, 0, 0, 0, 0, 0, 0, 0, 0, 0, 0, 0, 0, 0, 0, 0, 0, 0, 0]","[0.0003110999969067052, 0.014796400006162003, 0.028853800002252683, 0.04530749999685213, 0.06204270001035184, 0.0785026000085054, 0.09515860000101384, 0.11195950000546873, 0.12851470000168774, 0.14551159999973606, 0.16191550000803545, 0.17872840000200085, 0.1951612999982899, 0.21192870000959374, 0.2284981999982847, 0.24503740000363905, 0.2617988999991212, 0.2783930000005057, 0.2949317000020528, 0.3117899000062607, 0.3283930000034161, 0.344979700006661, 0.36179039999842644, 0.3781950999982655, 0.39538940000056755, 0.4115852000104496, 0.42873870000767056, 0.44484660000307485, 0.46147380000911653, 0.47796780000498984, 0.4948230000009062, 0.5115957000089111, 0.5280465000105323, 0.5448250000044936, 0.561399900005199, 0.5780375000031199, 0.5946727999980794, 0.6114269000099739, 0.6278604000108317, 0.6446760999970138, 0.661384300008649, 0.6785186000051908, 0.6947386000101687, 0.7113239000027534, 0.7278231000091182, 0.7445677000068827, 0.7612077000085264, 0.7777580999972997, 0.7946797000040533, 0.8112402999977348, 0.8277289999969071, 0.8445193000079598, 0.861264500010293, 0.8778373000095598, 0.8945984000019962, 0.9110603000008268, 0.9278726000047754, 0.9444779000041308, 0.960990400009905, 0.9778347000101348, 0.9942289000027813]",0.010937840008409694,1.0212810400116723,46.198901199997636,None,46.198901199997636,None,46.198901199997636,None,46.198901199997636,46.70602489999146,46.198901199997636,None,,,,,,,,,,,,,,,,,,,,,,,,,,,,,,,,,,,,,,,,,,,,,,,,,,,,,,,,,,,,,0,001,2020_Oct_14_1342,vm_20xx,2020.2.4,59.71158112132848,
0.3,0.3,0,,,,,0,10,10,0,,,,,,,,,,,,,,,,,,,,,47.20863929999177,None,47.20863929999177,None,48.37122669999371,None,47.20863929999177,None,"[0.0, 0.0, 0.0, 0.0, 0.0, 0.0, 0.0, 0.0, 0.0, 0.0, 0.0, 0.0, 0.0, 0.0, 0.0, 0.0, 0.0, 0.0, 0.0, 0.0, 0.0, 0.0, 0.0, 0.0, 0.0, 0.0, 0.0, 0.0, 0.0, 0.0, 0.0, 0.0, 0.0, 0.0, 0.0, 0.0, 0.0, 0.0, 0.0, 0.0, 0.0, 0.0, 0.0, 0.0, 0.0, 0.0, 0.0, 0.0, 0.0, 0.0, 0.0, 0.0, 0.0, 0.0, 0.0, 0.0, 0.0, 0.0, 0.0, 0.0, 0.0, 0.0, 0.0, 0.0, 0.0, 0.0, 0.0, 0.0, 0.0, 0.0, 0.0]","[0.0, 0.0, 0.0, 0.0, 0.0, 0.0, 0.0, 0.0, 0.0, 0.0, 0.0, 0.0, 0.0, 0.0, 0.0, 0.0, 0.0, 0.0, 0.0, 0.0, 0.0, 0.0, 0.0, 0.0, 0.0, 0.0, 0.0, 0.0, 0.0, 0.0, 0.0, 0.0, 0.0, 0.0, 0.0, 0.0, 0.0, 0.0, 0.0, 0.0, 0.0, 0.0, 0.0, 0.0, 0.0, 0.0, 0.0, 0.0, 0.0, 0.0, 0.0, 0.0, 0.0, 0.0, 0.0, 0.0, 0.0, 0.0, 0.0, 0.0, 0.0, 0.0, 0.0, 0.0, 0.0, 0.0, 0.0, 0.0, 0.0, 0.0, 0.0]","[0, 0, 0, 0, 0, 0, 0, 0, 0, 0, 0, 0, 0, 0, 0, 0, 0, 0, 0, 0, 0, 0, 0, 0, 0, 0, 0, 0, 0, 0, 0, 0, 0, 0, 0, 0, 0, 0, 0, 0, 0, 0, 0, 0, 0, 0, 0, 0, 0, 0, 0, 0, 0, 0, 0, 0, 0, 0, 0, 0, 0, 0, 0, 0, 0, 0, 0, 0, 0, 0, 0]","[0, 0, 0, 0, 0, 0, 0, 0, 0, 0, 0, 0, 0, 0, 0, 0, 0, 0, 0, 0, 0, 0, 0, 0, 0, 0, 0, 0, 0, 0, 0, 0, 0, 0, 0, 0, 0, 0, 0, 0, 0, 0, 0, 0, 0, 0, 0, 0, 0, 0, 0, 0, 0, 0, 0, 0, 0, 0, 0, 0, 0, 0, 0, 0, 0, 0, 0, 0, 0, 0, 0]","[0, 0, 0, 0, 0, 0, 0, 0, 0, 0, 0, 0, 0, 0, 0, 0, 0, 0, 0, 0, 0, 0, 0, 0, 0, 0, 0, 0, 0, 0, 0, 0, 0, 0, 0, 0, 0, 0, 0, 0, 0, 0, 0, 0, 0, 0, 0, 0, 0, 0, 0, 0, 0, 0, 0, 0, 0, 0, 0, 0, 0, 0, 0, 0, 0, 0, 0, 0, 0, 0, 0]","[0.00032300000020768493, 0.014901600006851368, 0.02901660000497941, 0.0449330999981612, 0.06171950000862125, 0.07825429999502376, 0.09488190000411123, 0.11173400000552647, 0.12845990000641905, 0.14489759999560192, 0.1616286000062246, 0.1781794999988051, 0.19496580000850372, 0.2116262000054121, 0.2281496000068728, 0.24531620000198018, 0.2615436000050977, 0.2779805000027409, 0.29510750000190455, 0.31146820000139996, 0.328102300001774, 0.34492400000453927, 0.3613552000024356, 0.3780298000056064, 0.3947628000023542, 0.41176840000844095, 0.42980009999882895, 0.4445125000056578, 0.4615767000068445, 0.47784380000666715, 0.4948062000039499, 0.5112914000055753, 0.528298100005486, 0.5448687000025529, 0.5612761000083992, 0.5776765000045998, 0.5943980000010924, 0.6112426000036066, 0.6277446000021882, 0.6444342000031611, 0.6610813000006601, 0.677710300005856, 0.6944013000029372, 0.7112276999978349, 0.7279496999981347, 0.7443708000064362, 0.7612786999961827, 0.7776532999996562, 0.7943658000003779, 0.8110080000042217, 0.8275526000070386, 0.8443155999993905, 0.860993199996301, 0.877369900001213, 0.8941411999985576, 0.9111488000053214, 0.9276320000062697, 0.9441670999949565, 0.9609065999975428, 0.9773988999950234, 0.9939912999980152, 1.0112850000004983, 1.0273362000007182, 1.0439943999954266, 1.0607410999946296, 1.0773671000060858, 1.0941028999950504, 1.1106560000043828, 1.127151100008632, 1.1438238999980967, 1.160685700000613]",0.01096364000113681,1.187617940013297,49.243324900002335,None,49.243324900002335,None,49.243324900002335,None,49.243324900002335,49.75326909999421,49.243324900002335,None,,,,,,,,,,,,,,,,,,,,,,,,,,,,,,,,,,,,,,,,,,,,,,,,,,,,,,,,,,,,,0,001,2020_Oct_14_1342,vm_20xx,2020.2.4,59.71158112132848,
-0.3,-0.3,0,,,,,0,11,11,6,,,,,,,,,,,,,,,,,,,,,50.23852499999339,None,50.23852499999339,None,51.0186085000023,None,50.23852499999339,None,"[0.0, 0.0, 0.0, 0.0, 0.0, 0.0, 0.0, 0.0, 0.0, 0.0, 0.0, 0.0, 0.0, 0.0, 0.0, 0.0, 0.0, 0.0, 0.0, 0.0, 0.0, 0.0, 0.0, 0.0, 0.0, 0.0, 0.0, 0.0, 0.0, 0.0, 0.0, 0.0, 0.0, 0.0, 0.0, 0.0, 0.0, 0.0, 0.0, 0.0, 0.0, 0.0, 0.0, 0.0, 0.0, 0.0, 0.0, 0.0]","[0.0, 0.0, 0.0, 0.0, 0.0, 0.0, 0.0, 0.0, 0.0, 0.0, 0.0, 0.0, 0.0, 0.0, 0.0, 0.0, 0.0, 0.0, 0.0, 0.0, 0.0, 0.0, 0.0, 0.0, 0.0, 0.0, 0.0, 0.0, 0.0, 0.0, 0.0, 0.0, 0.0, 0.0, 0.0, 0.0, 0.0, 0.0, 0.0, 0.0, 0.0, 0.0, 0.0, 0.0, 0.0, 0.0, 0.0, 0.0]","[0, 0, 0, 0, 0, 0, 0, 0, 0, 0, 0, 0, 0, 0, 0, 0, 0, 0, 0, 0, 0, 0, 0, 0, 0, 0, 0, 0, 0, 0, 0, 0, 0, 0, 0, 0, 0, 0, 0, 0, 0, 0, 0, 0, 0, 0, 0, 0]","[0, 0, 0, 0, 0, 0, 0, 0, 0, 0, 0, 0, 0, 0, 0, 0, 0, 0, 0, 0, 0, 0, 0, 0, 0, 0, 0, 0, 0, 0, 0, 0, 0, 0, 0, 0, 0, 0, 0, 0, 0, 0, 0, 0, 0, 0, 0, 0]","[0, 0, 0, 0, 0, 0, 0, 0, 0, 0, 0, 0, 0, 0, 0, 0, 0, 0, 0, 0, 0, 0, 0, 0, 0, 0, 0, 0, 0, 0, 0, 0, 0, 0, 0, 0, 0, 0, 0, 0, 0, 0, 0, 0, 0, 0, 0, 0]","[0.0003200000064680353, 0.014264400000683963, 0.029465500003425404, 0.04531650000717491, 0.06163440000091214, 0.07822540000779554, 0.09558860000106506, 0.11196780001046136, 0.12629220000235364, 0.14488459999847692, 0.16120390000287443, 0.17802920000394806, 0.19506460000411607, 0.21132930000021588, 0.22804550000000745, 0.24481930000183638, 0.26131320001150016, 0.2783851999993203, 0.2947042000014335, 0.3113527000095928, 0.3279991000017617, 0.34484940000402275, 0.3613305000035325, 0.37797680000949185, 0.3947883000073489, 0.4115232000040123, 0.42789980000816286, 0.4446481000049971, 0.4611321999982465, 0.477776100000483, 0.4960226000112016, 0.5110901000007289, 0.5278586000058567, 0.5445685000013327, 0.5609059999987949, 0.5777903999987757, 0.5945786000083899, 0.6110106999985874, 0.6277448000037111, 0.6443660000077216, 0.6609668000019155, 0.6776079000119353, 0.6944509000022663, 0.7108984000078635, 0.7274993000028189, 0.7451603000081377, 0.7610017000115477, 0.77763720000803]",0.010956940008327365,0.8044414400064852,51.84152390000236,None,51.84152390000236,None,51.84152390000236,None,51.84152390000236,52.35072419999051,51.84152390000236,None,,,,,,,,,,,,,,,,,,,,,,,,,,,,,,,,,,,,,,,,,,,,,,,,,,,,,,,,,,,,,0,001,2020_Oct_14_1342,vm_20xx,2020.2.4,59.71158112132848,
0.3,0.3,0,,,,,0,12,12,4,,,,,,,,,,,,,,,,,,,,,52.83737939999264,None,52.83737939999264,None,53.34990669999388,None,52.83737939999264,None,"[0.0, 0.0, 0.0, 0.0, 0.0, 0.0, 0.0, 0.0, 0.0, 0.0, 0.0, 0.0, 0.0, 0.0, 0.0, 0.0, 0.0, 0.0, 0.0, 0.0, 0.0, 0.0, 0.0, 0.0, 0.0, 0.0, 0.0, 0.0, 0.0, 0.0, 0.0, 0.0]","[0.0, 0.0, 0.0, 0.0, 0.0, 0.0, 0.0, 0.0, 0.0, 0.0, 0.0, 0.0, 0.0, 0.0, 0.0, 0.0, 0.0, 0.0, 0.0, 0.0, 0.0, 0.0, 0.0, 0.0, 0.0, 0.0, 0.0, 0.0, 0.0, 0.0, 0.0, 0.0]","[0, 0, 0, 0, 0, 0, 0, 0, 0, 0, 0, 0, 0, 0, 0, 0, 0, 0, 0, 0, 0, 0, 0, 0, 0, 0, 0, 0, 0, 0, 0, 0]","[0, 0, 0, 0, 0, 0, 0, 0, 0, 0, 0, 0, 0, 0, 0, 0, 0, 0, 0, 0, 0, 0, 0, 0, 0, 0, 0, 0, 0, 0, 0, 0]","[0, 0, 0, 0, 0, 0, 0, 0, 0, 0, 0, 0, 0, 0, 0, 0, 0, 0, 0, 0, 0, 0, 0, 0, 0, 0, 0, 0, 0, 0, 0, 0]","[0.00032640001154504716, 0.015541800006758422, 0.03028620000986848, 0.044799300012527965, 0.0616611000004923, 0.07825669999874663, 0.09493110000039451, 0.11168020000332035, 0.12835180001275148, 0.14490710000973195, 0.16154030000325292, 0.17859380001027603, 0.19523870000557508, 0.2115996000065934, 0.22811229999933857, 0.24458660000527743, 0.26154150000365917, 0.2780166000011377, 0.2946910000027856, 0.31148050000774674, 0.32807050000701565, 0.34476780000841245, 0.36148780000803526, 0.3780092000088189, 0.39458370000647847, 0.4113418000051752, 0.42791070000384934, 0.4445284000103129, 0.46170749999873806, 0.4779970000090543, 0.4945394000096712, 0.5115858000062872]",0.010845440017874353,0.538134140020702,54.17486309999367,None,54.17486309999367,None,54.17486309999367,None,54.17486309999367,54.68192979999003,54.17486309999367,None,,,,,,,,,,,,,,,,,,,,,,,,,,,,,,,,,,,,,,,,,,,,,,,,,,,,,,,,,,,,,0,001,2020_Oct_14_1342,vm_20xx,2020.2.4,59.71158112132848,
0.3,-0.3,0,,,,,0,13,13,7,,,,,,,,,,,,,,,,,,,,,55.18530440000177,None,55.18530440000177,None,56.01400490000378,None,55.18530440000177,None,"[0.0, 0.0, 0.0, 0.0, 0.0, 0.0, 0.0, 0.0, 0.0, 0.0, 0.0, 0.0, 0.0, 0.0, 0.0, 0.0, 0.0, 0.0, 0.0, 0.0, 0.0, 0.0, 0.0, 0.0, 0.0, 0.0, 0.0, 0.0, 0.0, 0.0, 0.0, 0.0, 0.0, 0.0, 0.0, 0.0, 0.0, 0.0, 0.0, 0.0, 0.0, 0.0, 0.0, 0.0, 0.0, 0.0, 0.0, 0.0, 0.0, 0.0, 0.0]","[0.0, 0.0, 0.0, 0.0, 0.0, 0.0, 0.0, 0.0, 0.0, 0.0, 0.0, 0.0, 0.0, 0.0, 0.0, 0.0, 0.0, 0.0, 0.0, 0.0, 0.0, 0.0, 0.0, 0.0, 0.0, 0.0, 0.0, 0.0, 0.0, 0.0, 0.0, 0.0, 0.0, 0.0, 0.0, 0.0, 0.0, 0.0, 0.0, 0.0, 0.0, 0.0, 0.0, 0.0, 0.0, 0.0, 0.0, 0.0, 0.0, 0.0, 0.0]","[0, 0, 0, 0, 0, 0, 0, 0, 0, 0, 0, 0, 0, 0, 0, 0, 0, 0, 0, 0, 0, 0, 0, 0, 0, 0, 0, 0, 0, 0, 0, 0, 0, 0, 0, 0, 0, 0, 0, 0, 0, 0, 0, 0, 0, 0, 0, 0, 0, 0, 0]","[0, 0, 0, 0, 0, 0, 0, 0, 0, 0, 0, 0, 0, 0, 0, 0, 0, 0, 0, 0, 0, 0, 0, 0, 0, 0, 0, 0, 0, 0, 0, 0, 0, 0, 0, 0, 0, 0, 0, 0, 0, 0, 0, 0, 0, 0, 0, 0, 0, 0, 0]","[0, 0, 0, 0, 0, 0, 0, 0, 0, 0, 0, 0, 0, 0, 0, 0, 0, 0, 0, 0, 0, 0, 0, 0, 0, 0, 0, 0, 0, 0, 0, 0, 0, 0, 0, 0, 0, 0, 0, 0, 0, 0, 0, 0, 0, 0, 0, 0, 0, 0, 0]","[0.00035039999056607485, 0.014941999994334765, 0.028876900003524497, 0.04424019998987205, 0.06087429999024607, 0.07789410000259522, 0.09418279999226797, 0.11114480000105686, 0.1274072999949567, 0.14480179999372922, 0.16078710000147112, 0.17745149999973364, 0.19415299998945557, 0.21106760000111535, 0.22746419999748468, 0.24411509999481495, 0.26068279999890365, 0.2773985999956494, 0.2941279999940889, 0.3105724999913946, 0.3272770999901695, 0.3442668999923626, 0.3620842999953311, 0.3771591999975499, 0.39389459999802057, 0.41045260000100825, 0.4272530000016559, 0.4437718999979552, 0.460611999995308, 0.4771489999984624, 0.4938676000019768, 0.5108026999951107, 0.5272587999934331, 0.5437450000026729, 0.5603587999939919, 0.5771410000015749, 0.593596399994567, 0.6103603999945335, 0.6271481000003405, 0.6436261999915587, 0.6602853999938816, 0.6771215999906417, 0.6936355999932857, 0.7102098000032129, 0.7268406999937724, 0.7436308000033023, 0.760139199992409, 0.7769698999909451, 0.7935140999907162, 0.8101391999953194, 0.8271053999924334]",0.010105940003995784,0.8529428400070174,57.25137790000008,None,57.25137790000008,None,57.25137790000008,None,57.25137790000008,57.762435999989975,57.25137790000008,None,,,,,,,,,,,,,,,,,,,,,,,,,,,,,,,,,,,,,,,,,,,,,,,,,,,,,,,,,,,,,0,001,2020_Oct_14_1342,vm_20xx,2020.2.4,59.71158112132848,
0.3,0.3,0,,,,,0,14,14,12,,,,,,,,,,,,,,,,,,,,,58.24834849999752,None,58.24834849999752,None,59.36089009999705,None,58.24834849999752,None,"[0.0, 0.0, 0.0, 0.0, 0.0, 0.0, 0.0, 0.0, 0.0, 0.0, 0.0, 0.0, 0.0, 0.0, 0.0, 0.0, 0.0, 0.0, 0.0, 0.0, 0.0, 0.0, 0.0, 0.0, 0.0, 0.0, 0.0, 0.0, 0.0, 0.0, 0.0, 0.0, 0.0, 0.0, 0.0, 0.0, 0.0, 0.0, 0.0, 0.0, 0.0, 0.0, 0.0, 0.0, 0.0, 0.0, 0.0, 0.0, 0.0, 0.0, 0.0, 0.0, 0.0, 0.0, 0.0, 0.0, 0.0, 0.0, 0.0, 0.0, 0.0, 0.0, 0.0, 0.0, 0.0, 0.0, 0.0, 0.0]","[0.0, 0.0, 0.0, 0.0, 0.0, 0.0, 0.0, 0.0, 0.0, 0.0, 0.0, 0.0, 0.0, 0.0, 0.0, 0.0, 0.0, 0.0, 0.0, 0.0, 0.0, 0.0, 0.0, 0.0, 0.0, 0.0, 0.0, 0.0, 0.0, 0.0, 0.0, 0.0, 0.0, 0.0, 0.0, 0.0, 0.0, 0.0, 0.0, 0.0, 0.0, 0.0, 0.0, 0.0, 0.0, 0.0, 0.0, 0.0, 0.0, 0.0, 0.0, 0.0, 0.0, 0.0, 0.0, 0.0, 0.0, 0.0, 0.0, 0.0, 0.0, 0.0, 0.0, 0.0, 0.0, 0.0, 0.0, 0.0]","[0, 0, 0, 0, 0, 0, 0, 0, 0, 0, 0, 0, 0, 0, 0, 0, 0, 0, 0, 0, 0, 0, 0, 0, 0, 0, 0, 0, 0, 0, 0, 0, 0, 0, 0, 0, 0, 0, 0, 0, 0, 0, 0, 0, 0, 0, 0, 0, 0, 0, 0, 0, 0, 0, 0, 0, 0, 0, 0, 0, 0, 0, 0, 0, 0, 0, 0, 0]","[0, 0, 0, 0, 0, 0, 0, 0, 0, 0, 0, 0, 0, 0, 0, 0, 0, 0, 0, 0, 0, 0, 0, 0, 0, 0, 0, 0, 0, 0, 0, 0, 0, 0, 0, 0, 0, 0, 0, 0, 0, 0, 0, 0, 0, 0, 0, 0, 0, 0, 0, 0, 0, 0, 0, 0, 0, 0, 0, 0, 0, 0, 0, 0, 0, 0, 0, 0]","[0, 0, 0, 0, 0, 0, 0, 0, 0, 0, 0, 0, 0, 0, 0, 0, 0, 0, 0, 0, 0, 0, 0, 0, 0, 0, 0, 0, 0, 0, 0, 0, 0, 0, 0, 0, 0, 0, 0, 0, 0, 0, 0, 0, 0, 0, 0, 0, 0, 0, 0, 0, 0, 0, 0, 0, 0, 0, 0, 0, 0, 0, 0, 0, 0, 0, 0, 0]","[0.0003222999948775396, 0.015159999995375983, 0.030010699992999434, 0.04710969999723602, 0.061577799991937354, 0.07833599999139551, 0.09495749999769032, 0.1117828999995254, 0.12830539999413304, 0.1456152999890037, 0.16200189999653958, 0.17841139998927247, 0.19518959999550134, 0.21175139999832027, 0.22835350000241306, 0.24542300000030082, 0.26157859999511857, 0.27829419999034144, 0.2949052999902051, 0.3116050999960862, 0.3282318999990821, 0.3449657000019215, 0.3629384999949252, 0.3783104999893112, 0.39496009999129456, 0.4113861999940127, 0.4281979999941541, 0.44504109999979846, 0.46137109999835957, 0.47806819999823347, 0.4947269999975106, 0.5113495999976294, 0.5281296000030125, 0.5446430000010878, 0.5613153000012971, 0.5781723999971291, 0.5947193000029074, 0.611755699996138, 0.6280810000025667, 0.6446360999980243, 0.6613778000028105, 0.6778516999911517, 0.6946593999891775, 0.7116748999978881, 0.7278457999927923, 0.744465499999933, 0.7611341000010725, 0.7778275000018766, 0.7945234999933746, 0.8111454000027152, 0.827725900002406, 0.8444118999905186, 0.8622135999903549, 0.8779345999937505, 0.8944201999984216, 0.9113548000023002, 0.9277361999993445, 0.9444294999993872, 0.9609326999925543, 0.9776487999915844, 0.9941915999952471, 1.0109700999892084, 1.0275852999911876, 1.0442741000006208, 1.0608554999926127, 1.0777495999936946, 1.0943355999916093, 1.1115909999934956]",0.01089774000865873,1.1378177400038112,60.164496400000644,None,60.164496400000644,None,60.164496400000644,None,60.164496400000644,60.67627559999528,60.164496400000644,None,,,,,,,,,,,,,,,,,,,,,,,,,,,,,,,,,,,,,,,,,,,,,,,,,,,,,,,,,,,,,0,001,2020_Oct_14_1342,vm_20xx,2020.2.4,59.71158112132848,
-0.3,-0.3,0,,,,,0,15,15,2,,,,,,,,,,,,,,,,,,,,,61.16138089999731,None,61.16138089999731,None,61.841875700003584,None,61.16138089999731,None,"[0.0, 0.0, 0.0, 0.0, 0.0, 0.0, 0.0, 0.0, 0.0, 0.0, 0.0, 0.0, 0.0, 0.0, 0.0, 0.0, 0.0, 0.0, 0.0, 0.0, 0.0, 0.0, 0.0, 0.0, 0.0, 0.0, 0.0, 0.0, 0.0, 0.0, 0.0, 0.0, 0.0, 0.0, 0.0, 0.0, 0.0, 0.0, 0.0, 0.0, 0.0, 0.0, 0.0]","[0.0, 0.0, 0.0, 0.0, 0.0, 0.0, 0.0, 0.0, 0.0, 0.0, 0.0, 0.0, 0.0, 0.0, 0.0, 0.0, 0.0, 0.0, 0.0, 0.0, 0.0, 0.0, 0.0, 0.0, 0.0, 0.0, 0.0, 0.0, 0.0, 0.0, 0.0, 0.0, 0.0, 0.0, 0.0, 0.0, 0.0, 0.0, 0.0, 0.0, 0.0, 0.0, 0.0]","[0, 0, 0, 0, 0, 0, 0, 0, 0, 0, 0, 0, 0, 0, 0, 0, 0, 0, 0, 0, 0, 0, 0, 0, 0, 0, 0, 0, 0, 0, 0, 0, 0, 0, 0, 0, 0, 0, 0, 0, 0, 0, 0]","[0, 0, 0, 0, 0, 0, 0, 0, 0, 0, 0, 0, 0, 0, 0, 0, 0, 0, 0, 0, 0, 0, 0, 0, 0, 0, 0, 0, 0, 0, 0, 0, 0, 0, 0, 0, 0, 0, 0, 0, 0, 0, 0]","[0, 0, 0, 0, 0, 0, 0, 0, 0, 0, 0, 0, 0, 0, 0, 0, 0, 0, 0, 0, 0, 0, 0, 0, 0, 0, 0, 0, 0, 0, 0, 0, 0, 0, 0, 0, 0, 0, 0, 0, 0, 0, 0]","[0.00033070000063162297, 0.014086000010138378, 0.028718000001390465, 0.04501670000900049, 0.06165150000015274, 0.07833960000425577, 0.095150699999067, 0.11169130000052974, 0.12827290000859648, 0.14501720000407659, 0.16158400000131223, 0.17829840000194963, 0.19483520000358112, 0.21149010000226554, 0.22811570001067594, 0.24498760000278708, 0.26245000000926666, 0.278144700001576, 0.2953225000092061, 0.31144200000562705, 0.3280844000109937, 0.34470990000409074, 0.3614252999977907, 0.3782142999989446, 0.39472750001004897, 0.411308700000518, 0.4281199000106426, 0.444661300003645, 0.46133790000749286, 0.4778851000010036, 0.49491439999837894, 0.5112598999985494, 0.5278706000099191, 0.5446033000043826, 0.56155790000048, 0.5778176000021631, 0.5948302000033436, 0.6111425999988569, 0.6279100000101607, 0.6444652000063797, 0.6610499000089476, 0.6780485000053886, 0.6945547000068473]",0.01097843999741599,0.721326440005214,62.88153030000103,None,62.88153030000103,None,62.88153030000103,None,62.88153030000103,63.39042260000133,62.88153030000103,None,,,,,,,,,,,,,,,,,,,,,,,,,,,,,,,,,,,,,,,,,,,,,,,,,,,,,,,,,,,,,0,001,2020_Oct_14_1342,vm_20xx,2020.2.4,59.71158112132848,
,,,,,,,,,,,,,,,,,,,,,,,,,,,,,,,,,,,,,,,,,,,,,,,,,,,,,,,,,63.890000400002464,None,0.25981144000252243,None,,,,,,,,,,,,,,,,,,,,,,,,,,,,,,,,,,,,,,,,,,,,,,,,,,,,,,,,,0,001,2020_Oct_14_1342,vm_20xx,2020.2.4,59.71158112132848,
-0.3,-0.3,0,,,,,,,,,0,0,0,0,0,0,0,2,,,,,,,,,,,,,,,,,,,,,,,,,,,,,,,,,,,,,,,,,,,65.66961989999982,None,65.66961989999982,None,66.15452329999243,None,65.66961989999982,None,"[0.0, 0.0, 0.0, 0.0, 0.0, 0.0, 0.0, 0.0, 0.0, 0.0, 0.0, 0.0, 0.0, 0.0, 0.0, 0.0, 0.0, 0.0, 0.0, 0.0, 0.0, 0.0, 0.0, 0.0, 0.0, 0.0, 0.0, 0.0, 0.0, 0.0, 0.0, 0.0, 0.0, 0.0, 0.0, 0.0, 0.0, 0.0, 0.0, 0.0, 0.0, 0.0, 0.0, 0.0, 0.0, 0.0, 0.0, 0.0, 0.0, 0.0, 0.0, 0.0, 0.0, 0.0, 0.0, 0.0, 0.0, 0.0, 0.0, 0.0, 0.0, 0.0, 0.0, 0.0, 0.0, -0.021296296296296296, -0.037037037037037035, -0.05740740740740741, -0.09259259259259259, -0.10740740740740741, -0.1259259259259259, -0.1425925925925926, -0.16203703703703703, -0.17685185185185184, -0.18703703703703703, -0.19814814814814816, -0.2064814814814815, -0.21296296296296297, -0.2212962962962963, -0.23703703703703705, -0.2462962962962963]","[0.0, 0.0, 0.0, 0.0, 0.0, 0.0, 0.0, 0.0, 0.0, 0.0, 0.0, 0.0, 0.0, 0.0, 0.0, 0.0, 0.0, 0.0, 0.0, 0.0, 0.0, 0.0, 0.0, 0.0, 0.0, 0.0, 0.0, 0.0, 0.0, 0.0, 0.0, 0.0, 0.0, 0.0, 0.0, 0.0, 0.0, 0.0, 0.0, 0.0, 0.0, 0.0, 0.0, 0.0, 0.0, 0.0, 0.0, 0.0, 0.0, 0.0, 0.0, 0.0, 0.0, 0.0, 0.0, 0.0, 0.0, 0.0, 0.0, 0.0, 0.0, 0.0, 0.0, 0.0, 0.0, -0.027777777777777776, -0.05185185185185185, -0.07962962962962963, -0.12407407407407407, -0.14814814814814814, -0.17592592592592593, -0.2, -0.22407407407407406, -0.24074074074074073, -0.25555555555555554, -0.27037037037037037, -0.27870370370370373, -0.28703703703703703, -0.2935185185185185, -0.31203703703703706, -0.325]","[0, 0, 0, 0, 0, 0, 0, 0, 0, 0, 0, 0, 0, 0, 0, 0, 0, 0, 0, 0, 0, 0, 0, 0, 0, 0, 0, 0, 0, 0, 0, 0, 0, 0, 0, 0, 0, 0, 0, 0, 0, 0, 0, 0, 0, 0, 0, 0, 0, 0, 0, 0, 1, 1, 1, 1, 1, 1, 1, 1, 1, 1, 1, 1, 1, 1, 1, 1, 1, 1, 1, 1, 1, 1, 1, 1, 1, 1, 1, 1, 1]","[0, 0, 0, 0, 0, 0, 0, 0, 0, 0, 0, 0, 0, 0, 0, 0, 0, 0, 0, 0, 0, 0, 0, 0, 0, 0, 0, 0, 0, 0, 0, 0, 0, 0, 0, 0, 0, 0, 0, 0, 0, 0, 0, 0, 0, 0, 0, 0, 0, 0, 0, 0, 0, 0, 0, 0, 0, 0, 0, 0, 0, 0, 0, 0, 0, 0, 0, 0, 0, 0, 0, 0, 0, 0, 0, 0, 0, 0, 0, 0, 0]","[0, 0, 0, 0, 0, 0, 0, 0, 0, 0, 0, 0, 0, 0, 0, 0, 0, 0, 0, 0, 0, 0, 0, 0, 0, 0, 0, 0, 0, 0, 0, 0, 0, 0, 0, 0, 0, 0, 0, 0, 0, 0, 0, 0, 0, 0, 0, 0, 0, 0, 0, 0, 0, 0, 0, 0, 0, 0, 0, 0, 0, 0, 0, 0, 0, 0, 0, 0, 0, 0, 0, 0, 0, 0, 0, 0, 0, 0, 0, 0, 0]","[0.0009163999930024147, 0.017384699996910058, 0.03404990000126418, 0.05074739998963196, 0.06738310000218917, 0.08432619999803137, 0.10065860000031535, 0.11713719999534078, 0.13386370000080206, 0.15064399999391753, 0.1675970999931451, 0.18375599999853875, 0.2009187999938149, 0.21716359999845736, 0.2337338999932399, 0.25043970000115223, 0.26715020000119694, 0.28363819999503903, 0.3003700999979628, 0.3170572999952128, 0.33390669999062084, 0.3503647000034107, 0.36706730000150856, 0.38362429999688175, 0.40029069999582134, 0.41709679999621585, 0.4335443000018131, 0.4502022999949986, 0.4669238999922527, 0.4835389999934705, 0.5002481999981683, 0.5169183999969391, 0.5334947999945143, 0.55018900000141, 0.5669674999953713, 0.5840649000019766, 0.6002233999897726, 0.6167951999959769, 0.6333313999930397, 0.6501227999979164, 0.6668154999933904, 0.683410300000105, 0.6999669999931939, 0.7167794999986654, 0.7333815000019968, 0.7500641999940854, 0.7666766000038479, 0.7831626999977743, 0.7998871000017971, 0.8165865999908419, 0.834442699997453, 0.8500162999989698, 0.8666269999957876, 0.882525799999712, 0.8993757999996888, 0.9159764999931213, 0.9326379999984056, 0.949402199999895, 0.9662226999935228, 0.982815399998799, 0.9992545999994036, 1.015876899997238, 1.0325434999977006, 1.0492482999979984, 1.066159299996798, 1.0839292000018759, 1.0995675000012852, 1.116373199998634, 1.133024299997487, 1.1498930999950971, 1.1662340000038967, 1.1830680999992182, 1.1997910999925807, 1.216369300003862, 1.2328940000006696, 1.2495216999959666, 1.2661976999952458, 1.2830633999983547, 1.299959800002398, 1.3161631999973906, 1.3327758999948855]",0.5090264199970989,None,67.53398890000244,None,67.53398890000244,None,67.53398890000244,None,67.53398890000244,68.03596519998973,67.53398890000244,None,,,,,,,,,,,,,,,,,,,,,,,,,,,,,,,0,001,2020_Oct_14_1342,vm_20xx,2020.2.4,59.71158112132848,
-0.3,0.3,0,,,,,,,,,0,0,0,0,0,1,1,9,,,,,,,,,,,,,,,,,,,,,,,,,,,,,,,,,,,,,,,,,,,68.5216619999992,None,68.5216619999992,None,69.10167239999282,None,68.5216619999992,None,"[0.0, 0.0, 0.0, 0.0, 0.0, 0.0, 0.0, 0.0, 0.0, 0.0, 0.0, 0.0, 0.0, 0.0, 0.0, 0.0, 0.0, 0.0, 0.0, 0.0, 0.0, 0.0, 0.0, 0.0, 0.0, 0.0, 0.0, 0.0, 0.0, 0.0, 0.0, 0.0, 0.0, 0.0, 0.0, 0.0, 0.0, 0.0, 0.0, 0.0, 0.0, 0.0, 0.0, 0.0, 0.0, 0.0, 0.0, 0.0, 0.0, 0.0, 0.0, -0.014814814814814815, -0.06111111111111111, -0.14722222222222223, -0.19814814814814816, -0.24722222222222223, -0.2759259259259259, -0.32407407407407407]","[0.0, 0.0, 0.0, 0.0, 0.0, 0.0, 0.0, 0.0, 0.0, 0.0, 0.0, 0.0, 0.0, 0.0, 0.0, 0.0, 0.0, 0.0, 0.0, 0.0, 0.0, 0.0, 0.0, 0.0, 0.0, 0.0, 0.0, 0.0, 0.0, 0.0, 0.0, 0.0, 0.0, 0.0, 0.0, 0.0, 0.0, 0.0, 0.0, 0.0, 0.0, 0.0, 0.0, 0.0, 0.0, 0.0, 0.0, 0.0, 0.0, 0.0, 0.0, 0.007407407407407408, 0.03981481481481482, 0.10555555555555556, 0.14444444444444443, 0.18981481481481483, 0.21481481481481482, 0.25277777777777777]","[0, 0, 0, 0, 0, 0, 0, 0, 0, 0, 0, 0, 0, 0, 0, 0, 0, 0, 0, 0, 0, 0, 0, 0, 0, 0, 0, 0, 0, 0, 0, 0, 0, 0, 0, 0, 1, 1, 1, 1, 1, 1, 1, 1, 1, 1, 1, 1, 1, 1, 1, 1, 1, 1, 1, 1, 1, 1]","[0, 0, 0, 0, 0, 0, 0, 0, 0, 0, 0, 0, 0, 0, 0, 0, 0, 0, 0, 0, 0, 0, 0, 0, 0, 0, 0, 0, 0, 0, 0, 0, 0, 0, 0, 0, 0, 0, 0, 0, 0, 0, 0, 0, 0, 0, 0, 0, 0, 0, 0, 0, 0, 0, 0, 0, 0, 0]","[0, 0, 0, 0, 0, 0, 0, 0, 0, 0, 0, 0, 0, 0, 0, 0, 0, 0, 0, 0, 0, 0, 0, 0, 0, 0, 0, 0, 0, 0, 0, 0, 0, 0, 0, 0, 0, 0, 0, 0, 0, 0, 0, 0, 0, 0, 0, 0, 0, 0, 0, 0, 0, 0, 0, 0, 0, 0]","[0.0009418999979970977, 0.017349900008412078, 0.03401509999821428, 0.050684200003161095, 0.06728760000260081, 0.08395539999764878, 0.1008501000032993, 0.11707780000870116, 0.13393789999827277, 0.15103880000242498, 0.1671389000111958, 0.18392080000194255, 0.2004802000010386, 0.2171435000054771, 0.23378730000695214, 0.25048690001131035, 0.2670646000042325, 0.2839624000043841, 0.30038810000405647, 0.31703900000138674, 0.3337787000054959, 0.35059390000242274, 0.36715050000930205, 0.38366070001211483, 0.4003079000103753, 0.41690969999763183, 0.4336533000023337, 0.4502490000013495, 0.46685209999850485, 0.4835919000033755, 0.5004098000063095, 0.516943300011917, 0.5335819000029005, 0.550132800010033, 0.5667986000044039, 0.5835609000059776, 0.6014675000042189, 0.6165217000088887, 0.633071000003838, 0.6495551999978488, 0.6661419000010937, 0.6829492000106256, 0.699429100000998, 0.7160733000055188, 0.7329557000048226, 0.7494091999978991, 0.766024099997594, 0.7827064000011887, 0.7994061000063084, 0.8159682000114117, 0.8327690000005532, 0.8506349000090268, 0.8665428000094835, 0.8834458000055747, 0.9000765000091633, 0.9167307000025176, 0.9345468000101391, 0.9501799999998184]",0.6040963400009787,None,70.09575349999068,None,70.09575349999068,None,70.09575349999068,None,70.09575349999068,70.60029750000103,70.09575349999068,None,,,,,,,,,,,,,,,,,,,,,,,,,,,,,,,0,001,2020_Oct_14_1342,vm_20xx,2020.2.4,59.71158112132848,
-0.3,-0.3,0,,,,,,,,,0,0,0,0,0,2,2,6,,,,,,,,,,,,,,,,,,,,,,,,,,,,,,,,,,,,,,,,,,,71.08454609999899,None,71.08454609999899,None,72.08215729999938,None,71.08454609999899,None,"[0.0, 0.0, 0.0, 0.0, 0.0, 0.0, 0.0, 0.0, 0.0, 0.0, 0.0, 0.0, 0.0, 0.0, 0.0, 0.0, 0.0, 0.0, 0.0, 0.0, 0.0, 0.0, 0.0, 0.0, 0.0, 0.0, 0.0, 0.0, 0.0, 0.0, 0.0, 0.0, 0.0, 0.0, 0.0, 0.0, 0.0, 0.0, 0.0, 0.0, 0.0, 0.0, 0.003703703703703704, 0.008333333333333333, 0.010185185185185186, 0.006481481481481481, 0.000925925925925926, -0.008333333333333333, -0.021296296296296296, -0.03148148148148148, -0.03981481481481482, -0.05185185185185185, -0.06574074074074074, -0.08055555555555556, -0.09537037037037037, -0.10462962962962963, -0.11944444444444445, -0.13333333333333333]","[0.0, 0.0, 0.0, 0.0, 0.0, 0.0, 0.0, 0.0, 0.0, 0.0, 0.0, 0.0, 0.0, 0.0, 0.0, 0.0, 0.0, 0.0, 0.0, 0.0, 0.0, 0.0, 0.0, 0.0, 0.0, 0.0, 0.0, 0.0, 0.0, 0.0, 0.0, 0.0, 0.0, 0.0, 0.0, 0.0, 0.0, 0.0, 0.0, 0.0, 0.0, 0.0, -0.019444444444444445, -0.05185185185185185, -0.07962962962962963, -0.12962962962962962, -0.15462962962962962, -0.18518518518518517, -0.2175925925925926, -0.2361111111111111, -0.25925925925925924, -0.2777777777777778, -0.3, -0.31851851851851853, -0.3388888888888889, -0.3574074074074074, -0.3768518518518518, -0.3907407407407407]","[0, 0, 0, 0, 0, 0, 0, 0, 0, 0, 0, 0, 0, 0, 0, 0, 0, 0, 0, 0, 0, 0, 0, 0, 0, 0, 0, 1, 1, 1, 1, 1, 1, 1, 1, 1, 1, 1, 1, 1, 1, 1, 1, 1, 1, 1, 1, 1, 1, 1, 1, 1, 1, 1, 1, 1, 1, 1]","[0, 0, 0, 0, 0, 0, 0, 0, 0, 0, 0, 0, 0, 0, 0, 0, 0, 0, 0, 0, 0, 0, 0, 0, 0, 0, 0, 0, 0, 0, 0, 0, 0, 0, 0, 0, 0, 0, 0, 0, 0, 0, 0, 0, 0, 0, 0, 0, 0, 0, 0, 0, 0, 0, 0, 0, 0, 0]","[0, 0, 0, 0, 0, 0, 0, 0, 0, 0, 0, 0, 0, 0, 0, 0, 0, 0, 0, 0, 0, 0, 0, 0, 0, 0, 0, 0, 0, 0, 0, 0, 0, 0, 0, 0, 0, 0, 0, 0, 0, 0, 0, 0, 0, 0, 0, 0, 0, 0, 0, 0, 0, 0, 0, 0, 0, 0]","[0.0010670999909052625, 0.017830400000093505, 0.034600099999806844, 0.05139069999859203, 0.06725939999159891, 0.08410559999174438, 0.10070499998982996, 0.11733719999028835, 0.13395499999751337, 0.15072729998792056, 0.16734999998880085, 0.1839375999988988, 0.20070839999243617, 0.21733459999086335, 0.23445859999628738, 0.2505378999921959, 0.267102599987993, 0.2838677999970969, 0.3004746999940835, 0.31722279998939484, 0.33378229998925235, 0.35051849999581464, 0.3670904999889899, 0.38437029998749495, 0.40068129998689983, 0.41745179999270476, 0.43369029999303166, 0.45170029999280814, 0.46625999998650514, 0.4832185999985086, 0.4998739999864483, 0.5162807999877259, 0.5332351999968523, 0.5496978999872226, 0.5665048999944702, 0.5832382999942638, 0.5997590999904787, 0.6162287999904947, 0.6330456999858143, 0.649600399992778, 0.6661476999870501, 0.6831447999866214, 0.7013590999995358, 0.7169886999909068, 0.734703999987687, 0.7507285999890883, 0.7672764999879291, 0.7834982999920612, 0.8003984999959357, 0.8166029999993043, 0.8336511999950744, 0.8501069999911124, 0.8664983999915421, 0.883345799986273, 0.9001344999996945, 0.9167446999927051, 0.9332331999903545, 0.9507714999926975]",1.0236516400036635,None,73.06964049999078,None,73.06964049999078,None,73.06964049999078,None,73.06964049999078,73.58085499999288,73.06964049999078,None,,,,,,,,,,,,,,,,,,,,,,,,,,,,,,,0,001,2020_Oct_14_1342,vm_20xx,2020.2.4,59.71158112132848,
0.3,-0.3,0,,,,,,,,,0,0,0,0,0,3,3,11,,,,,,,,,,,,,,,,,,,,,,,,,,,,,,,,,,,,,,,,,,,74.06459039999754,None,74.06459039999754,None,74.54705399999511,None,74.06459039999754,None,"[0.0, 0.0, 0.0, 0.0, 0.0, 0.0, 0.0, 0.0, 0.0, 0.0, 0.0, 0.0, 0.0, 0.0, 0.0, 0.0, 0.0, 0.0, 0.0, 0.0, 0.0, 0.0, 0.0, 0.0, 0.0, 0.0, 0.0, 0.0, 0.0, 0.0, 0.0, 0.0, 0.0, 0.0, 0.0, 0.0, 0.0, 0.0, 0.0, 0.0, 0.0, 0.0, 0.0, 0.0, 0.0, 0.0, 0.0, 0.0, 0.0, 0.0, 0.0, 0.013888888888888888, 0.041666666666666664, 0.05925925925925926, 0.08796296296296297, 0.1175925925925926, 0.17037037037037037, 0.20185185185185187, 0.24351851851851852, 0.29074074074074074, 0.32407407407407407, 0.35648148148148145, 0.38796296296296295]","[0.0, 0.0, 0.0, 0.0, 0.0, 0.0, 0.0, 0.0, 0.0, 0.0, 0.0, 0.0, 0.0, 0.0, 0.0, 0.0, 0.0, 0.0, 0.0, 0.0, 0.0, 0.0, 0.0, 0.0, 0.0, 0.0, 0.0, 0.0, 0.0, 0.0, 0.0, 0.0, 0.0, 0.0, 0.0, 0.0, 0.0, 0.0, 0.0, 0.0, 0.0, 0.0, 0.0, 0.0, 0.0, 0.0, 0.0, 0.0, 0.0, 0.0, 0.0, -0.004629629629629629, -0.014814814814814815, -0.019444444444444445, -0.028703703703703703, -0.03518518518518519, -0.04537037037037037, -0.049074074074074076, -0.053703703703703705, -0.06111111111111111, -0.06759259259259259, -0.07592592592592592, -0.08518518518518518]","[0, 0, 0, 0, 0, 0, 0, 0, 0, 0, 0, 0, 0, 0, 0, 0, 0, 0, 0, 0, 0, 0, 0, 0, 0, 0, 0, 0, 0, 0, 0, 0, 0, 0, 0, 1, 1, 1, 1, 1, 1, 1, 1, 1, 1, 1, 1, 1, 1, 1, 1, 1, 1, 1, 1, 1, 1, 1, 1, 1, 1, 1, 1]","[0, 0, 0, 0, 0, 0, 0, 0, 0, 0, 0, 0, 0, 0, 0, 0, 0, 0, 0, 0, 0, 0, 0, 0, 0, 0, 0, 0, 0, 0, 0, 0, 0, 0, 0, 0, 0, 0, 0, 0, 0, 0, 0, 0, 0, 0, 0, 0, 0, 0, 0, 0, 0, 0, 0, 0, 0, 0, 0, 0, 0, 0, 0]","[0, 0, 0, 0, 0, 0, 0, 0, 0, 0, 0, 0, 0, 0, 0, 0, 0, 0, 0, 0, 0, 0, 0, 0, 0, 0, 0, 0, 0, 0, 0, 0, 0, 0, 0, 0, 0, 0, 0, 0, 0, 0, 0, 0, 0, 0, 0, 0, 0, 0, 0, 0, 0, 0, 0, 0, 0, 0, 0, 0, 0, 0, 0]","[0.0009356000082334504, 0.01748789999692235, 0.03349030000390485, 0.05013400000461843, 0.0671174000017345, 0.08355870000377763, 0.10009910000371747, 0.1167431000067154, 0.13343359999998938, 0.15032179999980144, 0.16669870000623632, 0.18358769999758806, 0.20001000000047497, 0.2166546000080416, 0.23336690000724047, 0.25006829999620095, 0.2665968000073917, 0.2832778000010876, 0.3000210000027437, 0.31655879999743775, 0.33357560000149533, 0.34997029999794904, 0.36653430000296794, 0.383200800002669, 0.3998401999997441, 0.41637140000239015, 0.4332646999973804, 0.44983320000756066, 0.46645300000091083, 0.48303170000144746, 0.5002030000032391, 0.5163824000046588, 0.5330189000087557, 0.5497719999984838, 0.5664829000015743, 0.5843319999985397, 0.5989814000058686, 0.615752199999406, 0.6324055000004591, 0.6492375999951037, 0.6656948000018019, 0.6824669000052381, 0.6995721999992384, 0.7158283000026131, 0.7323649000027217, 0.7500949999957811, 0.7654904000082752, 0.7824930000060704, 0.7997165999986464, 0.8154313999984879, 0.8326931000046898, 0.8494410999992397, 0.8659721000003628, 0.8833402000018395, 0.8999072000005981, 0.9161017000005813, 0.9327845000079833, 0.9495223999983864, 0.9667219999973895, 0.9828524000040488, 0.9994084000063594, 1.0162592999986373, 1.0325331000058213]",0.5081578399986029,None,75.61867689999053,None,75.61867689999053,None,75.61867689999053,None,75.61867689999053,76.12869499999215,75.61867689999053,None,,,,,,,,,,,,,,,,,,,,,,,,,,,,,,,0,001,2020_Oct_14_1342,vm_20xx,2020.2.4,59.71158112132848,
0.3,-0.3,0,,,,,,,,,0,0,0,0,0,4,4,7,,,,,,,,,,,,,,,,,,,,,,,,,,,,,,,,,,,,,,,,,,,76.6132360999909,None,76.6132360999909,None,77.27722219999123,None,76.6132360999909,None,"[0.0, 0.0, 0.0, 0.0, 0.0, 0.0, 0.0, 0.0, 0.0, 0.0, 0.0, 0.0, 0.0, 0.0, 0.0, 0.0, 0.0, 0.0, 0.0, 0.0, 0.0, 0.0, 0.0, 0.0, 0.0, 0.0, 0.0, 0.0, 0.0, 0.0, 0.0, 0.0, 0.0, 0.0, 0.0, 0.0, 0.0, 0.0, 0.0, 0.0, 0.0, 0.0, 0.0, 0.0, 0.0, 0.0, 0.0, 0.0, 0.0, 0.0, 0.0, 0.0, 0.0, 0.008333333333333333, 0.03333333333333333, 0.049074074074074076, 0.06296296296296296, 0.07407407407407407, 0.10185185185185185, 0.12129629629629629, 0.1398148148148148, 0.16666666666666666, 0.18518518518518517, 0.20462962962962963, 0.22314814814814815, 0.24814814814814815, 0.26851851851851855, 0.28703703703703703, 0.30185185185185187, 0.32685185185185184, 0.3435185185185185]","[0.0, 0.0, 0.0, 0.0, 0.0, 0.0, 0.0, 0.0, 0.0, 0.0, 0.0, 0.0, 0.0, 0.0, 0.0, 0.0, 0.0, 0.0, 0.0, 0.0, 0.0, 0.0, 0.0, 0.0, 0.0, 0.0, 0.0, 0.0, 0.0, 0.0, 0.0, 0.0, 0.0, 0.0, 0.0, 0.0, 0.0, 0.0, 0.0, 0.0, 0.0, 0.0, 0.0, 0.0, 0.0, 0.0, 0.0, 0.0, 0.0, 0.0, 0.0, 0.0, 0.0, -0.003703703703703704, -0.016666666666666666, -0.024074074074074074, -0.03333333333333333, -0.04259259259259259, -0.06388888888888888, -0.07685185185185185, -0.08888888888888889, -0.10555555555555556, -0.11944444444444445, -0.13425925925925927, -0.14722222222222223, -0.16574074074074074, -0.1787037037037037, -0.19166666666666668, -0.2037037037037037, -0.22037037037037038, -0.22962962962962963]","[0, 0, 0, 0, 0, 0, 0, 0, 0, 0, 0, 0, 0, 0, 0, 0, 0, 0, 0, 0, 0, 0, 0, 0, 0, 0, 0, 0, 0, 0, 0, 0, 0, 0, 0, 0, 0, 1, 1, 1, 1, 1, 1, 1, 1, 1, 1, 1, 1, 1, 1, 1, 1, 1, 1, 1, 1, 1, 1, 1, 1, 1, 1, 1, 1, 1, 1, 1, 1, 1, 1]","[0, 0, 0, 0, 0, 0, 0, 0, 0, 0, 0, 0, 0, 0, 0, 0, 0, 0, 0, 0, 0, 0, 0, 0, 0, 0, 0, 0, 0, 0, 0, 0, 0, 0, 0, 0, 0, 0, 0, 0, 0, 0, 0, 0, 0, 0, 0, 0, 0, 0, 0, 0, 0, 0, 0, 0, 0, 0, 0, 0, 0, 0, 0, 0, 0, 0, 0, 0, 0, 0, 0]","[0, 0, 0, 0, 0, 0, 0, 0, 0, 0, 0, 0, 0, 0, 0, 0, 0, 0, 0, 0, 0, 0, 0, 0, 0, 0, 0, 0, 0, 0, 0, 0, 0, 0, 0, 0, 0, 0, 0, 0, 0, 0, 0, 0, 0, 0, 0, 0, 0, 0, 0, 0, 0, 0, 0, 0, 0, 0, 0, 0, 0, 0, 0, 0, 0, 0, 0, 0, 0, 0, 0]","[0.0009182999929180369, 0.017547299998113886, 0.03409279999323189, 0.05081190000055358, 0.06752789999882225, 0.08420009999827016, 0.10069110000040382, 0.1176658999902429, 0.13424529999610968, 0.15067409999028314, 0.1674664999882225, 0.1840498999954434, 0.20065689999319147, 0.21739209999213926, 0.234084099996835, 0.2507432999991579, 0.26743310000165366, 0.2838415000005625, 0.3004867999989074, 0.31729199999244884, 0.3338585999881616, 0.3506957999925362, 0.3671343999885721, 0.3838606999925105, 0.4004936999990605, 0.4171298000001116, 0.4341635999880964, 0.45040119999612216, 0.4669819999980973, 0.483753099993919, 0.5002306999958819, 0.5171304999967106, 0.5337564999936149, 0.550336399988737, 0.567725499990047, 0.5834892999992007, 0.6002042999898549, 0.6186064999928931, 0.6329343999968842, 0.6497151999938069, 0.6662597999966238, 0.6830722000013338, 0.699546999996528, 0.7164634999935515, 0.7328961999883177, 0.7495775999996113, 0.7663475000008475, 0.7829050000000279, 0.7995367999974405, 0.8163034999888623, 0.83295339999313, 0.849646999995457, 0.8667056999984197, 0.8835518999985652, 0.9000604999891948, 0.9172848999878624, 0.9333195999934105, 0.9499811999994563, 0.9671966999885626, 0.9841173999884631, 1.0017697000002954, 1.0176467999990564, 1.0333509999909438, 1.0505821999977343, 1.0671788999898126, 1.0830891999939922, 1.0997922999958973, 1.117138099987642, 1.133326399998623, 1.149777599988738, 1.1669128999928944]",0.690211540000746,None,78.48167399999511,None,78.48167399999511,None,78.48167399999511,None,78.48167399999511,78.99218689999543,78.48167399999511,None,,,,,,,,,,,,,,,,,,,,,,,,,,,,,,,0,001,2020_Oct_14_1342,vm_20xx,2020.2.4,59.71158112132848,
0.3,0.3,0,,,,,,,,,0,0,0,0,0,5,5,4,,,,,,,,,,,,,,,,,,,,,,,,,,,,,,,,,,,,,,,,,,,79.47611889999826,None,79.47611889999826,None,79.95823419999215,None,79.47611889999826,None,"[0.0, 0.0, 0.0, 0.0, 0.0, 0.0, 0.0, 0.0, 0.0, 0.0, 0.0, 0.0, 0.0, 0.0, 0.0, 0.0, 0.0, 0.0, 0.0, 0.0, 0.0, 0.0, 0.0, 0.0, 0.0, 0.0, 0.0, 0.0, 0.0, 0.0, 0.0, 0.0, 0.0, 0.0, 0.0, 0.0, 0.0, 0.0, 0.0, 0.0, 0.0, 0.0, 0.0, 0.0, 0.0, 0.0, 0.0, 0.0, 0.0, 0.0, 0.0, 0.0, 0.0, 0.0, 0.0, 0.0, 0.0, 0.0, 0.0, 0.0, 0.0, 0.0, 0.002777777777777778, 0.009259259259259259, 0.019444444444444445, 0.02962962962962963, 0.03518518518518519, 0.04351851851851852, 0.049074074074074076, 0.058333333333333334, 0.06296296296296296, 0.06944444444444445, 0.07592592592592592, 0.08148148148148149, 0.08518518518518518, 0.09351851851851851, 0.09907407407407408, 0.10462962962962963, 0.1111111111111111, 0.11574074074074074, 0.12037037037037036, 0.12314814814814815, 0.13148148148148148, 0.13333333333333333, 0.1361111111111111, 0.1398148148148148, 0.14166666666666666, 0.14444444444444443, 0.14814814814814814, 0.15, 0.15185185185185185, 0.1537037037037037, 0.15555555555555556, 0.15648148148148147, 0.15925925925925927, 0.16018518518518518, 0.16296296296296298]","[0.0, 0.0, 0.0, 0.0, 0.0, 0.0, 0.0, 0.0, 0.0, 0.0, 0.0, 0.0, 0.0, 0.0, 0.0, 0.0, 0.0, 0.0, 0.0, 0.0, 0.0, 0.0, 0.0, 0.0, 0.0, 0.0, 0.0, 0.0, 0.0, 0.0, 0.0, 0.0, 0.0, 0.0, 0.0, 0.0, 0.0, 0.0, 0.0, 0.0, 0.0, 0.0, 0.0, 0.0, 0.0, 0.0, 0.0, 0.0, 0.0, 0.0, 0.0, 0.0, 0.0, 0.0, 0.0, 0.0, 0.0, 0.0, 0.0, 0.0, 0.0, 0.0, 0.003703703703703704, 0.019444444444444445, 0.03888888888888889, 0.05925925925925926, 0.07685185185185185, 0.0962962962962963, 0.11388888888888889, 0.1361111111111111, 0.1527777777777778, 0.1638888888888889, 0.18796296296296297, 0.20185185185185187, 0.21296296296296297, 0.22962962962962963, 0.24074074074074073, 0.2518518518518518, 0.2638888888888889, 0.27314814814814814, 0.2796296296296296, 0.28703703703703703, 0.30277777777777776, 0.3111111111111111, 0.32037037037037036, 0.33055555555555555, 0.3351851851851852, 0.34074074074074073, 0.34629629629629627, 0.3509259259259259, 0.35648148148148145, 0.36018518518518516, 0.3638888888888889, 0.36666666666666664, 0.3712962962962963, 0.3731481481481482, 0.37962962962962965]","[0, 0, 0, 0, 0, 0, 0, 0, 0, 0, 0, 0, 0, 0, 0, 0, 0, 0, 0, 0, 0, 0, 0, 0, 0, 0, 0, 0, 0, 0, 0, 0, 0, 0, 0, 0, 0, 0, 0, 0, 0, 0, 0, 0, 0, 1, 1, 1, 1, 1, 1, 1, 1, 1, 1, 1, 1, 1, 1, 1, 1, 1, 1, 1, 1, 1, 1, 1, 1, 1, 1, 1, 1, 1, 1, 1, 1, 1, 1, 1, 1, 1, 1, 1, 1, 1, 1, 1, 1, 1, 1, 1, 1, 1, 1, 1, 1]","[0, 0, 0, 0, 0, 0, 0, 0, 0, 0, 0, 0, 0, 0, 0, 0, 0, 0, 0, 0, 0, 0, 0, 0, 0, 0, 0, 0, 0, 0, 0, 0, 0, 0, 0, 0, 0, 0, 0, 0, 0, 0, 0, 0, 0, 0, 0, 0, 0, 0, 0, 0, 0, 0, 0, 0, 0, 0, 0, 0, 0, 0, 0, 0, 0, 0, 0, 0, 0, 0, 0, 0, 0, 0, 0, 0, 0, 0, 0, 0, 0, 0, 0, 0, 0, 0, 0, 0, 0, 0, 0, 0, 0, 0, 0, 0, 0]","[0, 0, 0, 0, 0, 0, 0, 0, 0, 0, 0, 0, 0, 0, 0, 0, 0, 0, 0, 0, 0, 0, 0, 0, 0, 0, 0, 0, 0, 0, 0, 0, 0, 0, 0, 0, 0, 0, 0, 0, 0, 0, 0, 0, 0, 0, 0, 0, 0, 0, 0, 0, 0, 0, 0, 0, 0, 0, 0, 0, 0, 0, 0, 0, 0, 0, 0, 0, 0, 0, 0, 0, 0, 0, 0, 0, 0, 0, 0, 0, 0, 0, 0, 0, 0, 0, 0, 0, 0, 0, 0, 0, 0, 0, 0, 0, 0]","[0.000932400012970902, 0.017311700008576736, 0.034014000004390255, 0.05074260001129005, 0.06728070000826847, 0.08385660000203643, 0.10073130000091624, 0.11725210001168307, 0.13381759999901988, 0.15059309999924153, 0.16725230000156444, 0.18379200001072604, 0.2005317000002833, 0.21711770001275, 0.23378800001228228, 0.25042940001003444, 0.26708240000880323, 0.28370850000646897, 0.30042700000922196, 0.31699350000417326, 0.3337028000096325, 0.35045030000037514, 0.36820490000536665, 0.3856015000055777, 0.4006002000096487, 0.4169665000081295, 0.4335488000069745, 0.4504313000070397, 0.4669772000052035, 0.4834222000063164, 0.5002341000072192, 0.5168966000055661, 0.5333615999988979, 0.5504554000071948, 0.5667660000035539, 0.5832886999996845, 0.6001863999990746, 0.6172212000092259, 0.6332803000113927, 0.6501017000118736, 0.6666701000067405, 0.6833752000093227, 0.6999714000121458, 0.7167116000055103, 0.7335573000018485, 0.7521433000074467, 0.7661133000074187, 0.7827433000056772, 0.7994390000094427, 0.8159393000096316, 0.83268720000342, 0.8492775000049733, 0.8660950000048615, 0.882711800004472, 0.8992292000039015, 0.9160568000079365, 0.9324925000109943, 0.949601000000257, 0.9659558000130346, 0.9824894000048516, 0.999334700012696, 1.016247999999905, 1.033133100005216, 1.0494844000058947, 1.066349300002912, 1.083114300010493, 1.099812300002668, 1.117090100000496, 1.1382115000014892, 1.1582599000103073, 1.1767227000091225, 1.1911627000081353, 1.2110699000040768, 1.2298010000085924, 1.2540220000082627, 1.2698550000059186, 1.2851301000046078, 1.3007626000035089, 1.3177721000101883, 1.3330487000057474, 1.3494243000022834, 1.3661928000074113, 1.3827121000067564, 1.3993737999990117, 1.416322900011437, 1.4330171000037808, 1.4502299000014318, 1.466554400001769, 1.4826890000113053, 1.4992237000114983, 1.5168820000108099, 1.5325642000098014, 1.549176800006535, 1.565985000008368, 1.5825495000026422, 1.5991053000034299, 1.616210799998953]",0.5076910400093766,None,81.61143579999043,None,81.61143579999043,None,81.61143579999043,None,81.61143579999043,82.1227821999928,81.61143579999043,None,,,,,,,,,,,,,,,,,,,,,,,,,,,,,,,0,001,2020_Oct_14_1342,vm_20xx,2020.2.4,59.71158112132848,
0.3,-0.3,0,,,,,,,,,0,0,0,0,0,6,6,3,,,,,,,,,,,,,,,,,,,,,,,,,,,,,,,,,,,,,,,,,,,82.60679059999529,None,82.60679059999529,None,84.07085730000108,None,82.60679059999529,None,"[0.0, 0.0, 0.0, 0.0, 0.0, 0.0, 0.0, 0.0, 0.0, 0.0, 0.0, 0.0, 0.0, 0.0, 0.0, 0.0, 0.0, 0.0, 0.0, 0.0, 0.0, 0.0, 0.0, 0.0, 0.0, 0.0, 0.0, 0.0, 0.0, 0.0, 0.0, 0.0, 0.0, 0.0, 0.0, 0.0, 0.0, 0.0, 0.0, 0.0, 0.0, 0.0, 0.0, 0.0, 0.0, 0.0, 0.0, 0.0, 0.0, 0.0, 0.0, 0.0, 0.0, 0.0, 0.0, 0.0, 0.0, 0.0, 0.0, 0.0, 0.0, 0.012037037037037037, 0.028703703703703703, 0.03981481481481482, 0.05277777777777778, 0.06666666666666667, 0.08518518518518518, 0.09444444444444444, 0.10648148148148148, 0.12314814814814815, 0.13425925925925927, 0.14629629629629629, 0.15555555555555556, 0.1685185185185185, 0.17592592592592593, 0.18518518518518517, 0.1962962962962963, 0.21296296296296297, 0.22592592592592592, 0.2462962962962963, 0.26481481481481484, 0.2916666666666667, 0.30277777777777776, 0.31666666666666665, 0.3296296296296296]","[0.0, 0.0, 0.0, 0.0, 0.0, 0.0, 0.0, 0.0, 0.0, 0.0, 0.0, 0.0, 0.0, 0.0, 0.0, 0.0, 0.0, 0.0, 0.0, 0.0, 0.0, 0.0, 0.0, 0.0, 0.0, 0.0, 0.0, 0.0, 0.0, 0.0, 0.0, 0.0, 0.0, 0.0, 0.0, 0.0, 0.0, 0.0, 0.0, 0.0, 0.0, 0.0, 0.0, 0.0, 0.0, 0.0, 0.0, 0.0, 0.0, 0.0, 0.0, 0.0, 0.0, 0.0, 0.0, 0.0, 0.0, 0.0, 0.0, 0.0, 0.0, 0.006481481481481481, 0.017592592592592594, 0.025925925925925925, 0.03518518518518519, 0.04722222222222222, 0.06296296296296296, 0.0712962962962963, 0.08055555555555556, 0.09444444444444444, 0.10185185185185185, 0.1111111111111111, 0.11944444444444445, 0.13055555555555556, 0.1361111111111111, 0.1425925925925926, 0.14907407407407408, 0.16018518518518518, 0.16944444444444445, 0.1824074074074074, 0.19722222222222222, 0.21388888888888888, 0.2212962962962963, 0.23055555555555557, 0.23981481481481481]","[0, 0, 0, 0, 0, 0, 0, 0, 0, 0, 0, 0, 0, 0, 0, 0, 0, 0, 0, 0, 0, 0, 0, 0, 0, 0, 0, 0, 0, 0, 0, 0, 0, 0, 0, 0, 0, 0, 0, 0, 0, 0, 0, 0, 1, 1, 1, 1, 1, 1, 1, 1, 1, 1, 1, 1, 1, 1, 1, 1, 1, 1, 1, 1, 1, 1, 1, 1, 1, 1, 1, 1, 1, 1, 1, 1, 1, 1, 1, 1, 1, 1, 1, 1, 1]","[0, 0, 0, 0, 0, 0, 0, 0, 0, 0, 0, 0, 0, 0, 0, 0, 0, 0, 0, 0, 0, 0, 0, 0, 0, 0, 0, 0, 0, 0, 0, 0, 0, 0, 0, 0, 0, 0, 0, 0, 0, 0, 0, 0, 0, 0, 0, 0, 0, 0, 0, 0, 0, 0, 0, 0, 0, 0, 0, 0, 0, 0, 0, 0, 0, 0, 0, 0, 0, 0, 0, 0, 0, 0, 0, 0, 0, 0, 0, 0, 0, 0, 0, 0, 0]","[0, 0, 0, 0, 0, 0, 0, 0, 0, 0, 0, 0, 0, 0, 0, 0, 0, 0, 0, 0, 0, 0, 0, 0, 0, 0, 0, 0, 0, 0, 0, 0, 0, 0, 0, 0, 0, 0, 0, 0, 0, 0, 0, 0, 0, 0, 0, 0, 0, 0, 0, 0, 0, 0, 0, 0, 0, 0, 0, 0, 0, 0, 0, 0, 0, 0, 0, 0, 0, 0, 0, 0, 0, 0, 0, 0, 0, 0, 0, 0, 0, 0, 0, 0, 0]","[0.0009224999957950786, 0.017486600001575425, 0.03423209999164101, 0.050726599991321564, 0.06773270000121556, 0.08426009998947848, 0.10066749999532476, 0.11749649999546818, 0.13411839999025688, 0.15103319998888765, 0.16766690000076778, 0.1840959999972256, 0.200624399993103, 0.21730289999686647, 0.23388420000264887, 0.25062079999770503, 0.26734449999639764, 0.28420460000052117, 0.30047479999484494, 0.3171847999910824, 0.3338904999982333, 0.35043880000011995, 0.3674556999903871, 0.38385569999809377, 0.400428799999645, 0.4171629999909783, 0.4337710999971023, 0.45041309999942314, 0.46716069999092724, 0.48389839999435935, 0.5003185999958077, 0.5171418999962043, 0.5337367999891285, 0.5512261999974726, 0.5674908999935724, 0.5844610999920405, 0.6002187999984017, 0.6169112999923527, 0.6335861999978079, 0.6500928000023123, 0.667101899991394, 0.6837137999973493, 0.7003613999986555, 0.7167710999929113, 0.7349959999992279, 0.7493917999963742, 0.7663451999978861, 0.7829180999979144, 0.7994812999968417, 0.8161715999885928, 0.8327566999942064, 0.8495094999962021, 0.8661171999992803, 0.8829799999948591, 0.8995074999984354, 0.9162352999992436, 0.932862199988449, 0.9494747999997344, 0.9661111999885179, 0.9828604999929667, 1.0000318999955198, 1.0166482999920845, 1.033302999989246, 1.050238800002262, 1.0665814999956638, 1.0833173999999417, 1.0999646999989636, 1.11691399999836, 1.133268899997347, 1.1496377000003122, 1.1669620999891777, 1.18311869999161, 1.1996790999983205, 1.2163000000000466, 1.2330366999958642, 1.2500754999928176, 1.2664553999929922, 1.2829512000025716, 1.2997489999979734, 1.3166073999891523, 1.3330993999989005, 1.3492681999923661, 1.3671762000012677, 1.382851699992898, 1.3994431999890367]",1.4901937400136376,None,85.50902759999735,None,85.50902759999735,None,85.50902759999735,None,85.50902759999735,86.01916589999746,85.50902759999735,None,,,,,,,,,,,,,,,,,,,,,,,,,,,,,,,0,001,2020_Oct_14_1342,vm_20xx,2020.2.4,59.71158112132848,
-0.3,0.3,0,,,,,,,,,0,0,0,0,0,7,7,1,,,,,,,,,,,,,,,,,,,,,,,,,,,,,,,,,,,,,,,,,,,86.50267059999169,None,86.50267059999169,None,87.7174379999924,None,86.50267059999169,None,"[0.0, 0.0, 0.0, 0.0, 0.0, 0.0, 0.0, 0.0, 0.0, 0.0, 0.0, 0.0, 0.0, 0.0, 0.0, 0.0, 0.0, 0.0, 0.0, 0.0, 0.0, 0.0, 0.0, 0.0, 0.0, 0.0, 0.0, 0.0, 0.0, 0.0, 0.0, 0.0, 0.0, 0.0, 0.0, 0.0, 0.0, 0.0, 0.0, 0.0, 0.0, 0.0, -0.005555555555555556, -0.025925925925925925, -0.058333333333333334, -0.0787037037037037, -0.12037037037037036, -0.14814814814814814, -0.17037037037037037, -0.20277777777777778, -0.22685185185185186, -0.24537037037037038, -0.2796296296296296, -0.30092592592592593, -0.3175925925925926]","[0.0, 0.0, 0.0, 0.0, 0.0, 0.0, 0.0, 0.0, 0.0, 0.0, 0.0, 0.0, 0.0, 0.0, 0.0, 0.0, 0.0, 0.0, 0.0, 0.0, 0.0, 0.0, 0.0, 0.0, 0.0, 0.0, 0.0, 0.0, 0.0, 0.0, 0.0, 0.0, 0.0, 0.0, 0.0, 0.0, 0.0, 0.0, 0.0, 0.0, 0.0, 0.0, -0.002777777777777778, -0.017592592592592594, -0.03981481481481482, -0.05277777777777778, -0.08055555555555556, -0.09907407407407408, -0.11666666666666667, -0.14074074074074075, -0.1574074074074074, -0.175, -0.2037037037037037, -0.2175925925925926, -0.23333333333333334]","[0, 0, 0, 0, 0, 0, 0, 0, 0, 0, 0, 0, 0, 0, 0, 0, 0, 0, 0, 0, 0, 0, 0, 0, 0, 0, 0, 0, 1, 1, 1, 1, 1, 1, 1, 1, 1, 1, 1, 1, 1, 1, 1, 1, 1, 1, 1, 1, 1, 1, 1, 1, 1, 1, 1]","[0, 0, 0, 0, 0, 0, 0, 0, 0, 0, 0, 0, 0, 0, 0, 0, 0, 0, 0, 0, 0, 0, 0, 0, 0, 0, 0, 0, 0, 0, 0, 0, 0, 0, 0, 0, 0, 0, 0, 0, 0, 0, 0, 0, 0, 0, 0, 0, 0, 0, 0, 0, 0, 0, 0]","[0, 0, 0, 0, 0, 0, 0, 0, 0, 0, 0, 0, 0, 0, 0, 0, 0, 0, 0, 0, 0, 0, 0, 0, 0, 0, 0, 0, 0, 0, 0, 0, 0, 0, 0, 0, 0, 0, 0, 0, 0, 0, 0, 0, 0, 0, 0, 0, 0, 0, 0, 0, 0, 0, 0]","[0.0009186999959638342, 0.017397100004018284, 0.03407510000397451, 0.05073560000164434, 0.06733689999964554, 0.08401869999943301, 0.10074130000430159, 0.11750860000029206, 0.13400669999828096, 0.15070399999967776, 0.1672437999950489, 0.18415109999477863, 0.2005295999988448, 0.21719330000632908, 0.23381560000416357, 0.25062000000616536, 0.26716380000289064, 0.28391329999431036, 0.3007454000035068, 0.31707900000037625, 0.3338432000018656, 0.3506805999932112, 0.3677441000036197, 0.3837059999932535, 0.40062119999493007, 0.416967700002715, 0.4337242000037804, 0.4503407000011066, 0.4683348999969894, 0.4829343000019435, 0.4998607000015909, 0.5164702000038233, 0.533169899994391, 0.5497915000014473, 0.5664226999942912, 0.5834715999953914, 0.5996862000029068, 0.6162072000006447, 0.6332221000047866, 0.6496891999995569, 0.6662233999959426, 0.6830252999934601, 0.7004203999968013, 0.7168196999991778, 0.7350260999955935, 0.7536491999926511, 0.7696677000058116, 0.7852201000059722, 0.8019251999940025, 0.8174223999958485, 0.8330719999939902, 0.850140199996531, 0.8667398999969009, 0.8833043000049656, 0.8999261999997543]",1.240234140015673,None,88.64191569999093,None,88.64191569999093,None,88.64191569999093,None,88.64191569999093,89.14949519999209,88.64191569999093,None,,,,,,,,,,,,,,,,,,,,,,,,,,,,,,,0,001,2020_Oct_14_1342,vm_20xx,2020.2.4,59.71158112132848,
-0.3,-0.3,0,,,,,,,,,0,0,0,0,0,8,8,14,,,,,,,,,,,,,,,,,,,,,,,,,,,,,,,,,,,,,,,,,,,89.65053210000042,None,89.65053210000042,None,90.73136629999499,None,89.65053210000042,None,"[0.0, 0.0, 0.0, 0.0, 0.0, 0.0, 0.0, 0.0, 0.0, 0.0, 0.0, 0.0, 0.0, 0.0, 0.0, 0.0, 0.0, 0.0, 0.0, 0.0, 0.0, 0.0, 0.0, 0.0, 0.0, 0.0, 0.0, 0.0, 0.0, 0.0, 0.0, 0.0, 0.0, 0.0, 0.0, 0.0, 0.0, 0.0, 0.0, 0.0, 0.0, 0.0, 0.0, 0.0, 0.0, 0.004629629629629629, 0.022222222222222223, 0.041666666666666664, 0.06574074074074074, 0.08055555555555556, 0.09259259259259259, 0.10648148148148148, 0.13240740740740742, 0.14814814814814814, 0.16296296296296298, 0.17685185185185184, 0.20277777777777778, 0.21666666666666667, 0.22777777777777777, 0.2361111111111111, 0.2601851851851852, 0.2759259259259259]","[0.0, 0.0, 0.0, 0.0, 0.0, 0.0, 0.0, 0.0, 0.0, 0.0, 0.0, 0.0, 0.0, 0.0, 0.0, 0.0, 0.0, 0.0, 0.0, 0.0, 0.0, 0.0, 0.0, 0.0, 0.0, 0.0, 0.0, 0.0, 0.0, 0.0, 0.0, 0.0, 0.0, 0.0, 0.0, 0.0, 0.0, 0.0, 0.0, 0.0, 0.0, 0.0, 0.0, 0.0, 0.0, -0.007407407407407408, -0.03148148148148148, -0.05092592592592592, -0.07685185185185185, -0.09351851851851851, -0.10833333333333334, -0.12407407407407407, -0.14814814814814814, -0.1685185185185185, -0.18611111111111112, -0.20185185185185187, -0.22592592592592592, -0.24259259259259258, -0.2564814814814815, -0.2675925925925926, -0.28703703703703703, -0.30185185185185187]","[0, 0, 0, 0, 0, 0, 0, 0, 0, 0, 0, 0, 0, 0, 0, 0, 0, 0, 0, 0, 0, 0, 0, 0, 0, 0, 0, 0, 0, 0, 1, 1, 1, 1, 1, 1, 1, 1, 1, 1, 1, 1, 1, 1, 1, 1, 1, 1, 1, 1, 1, 1, 1, 1, 1, 1, 1, 1, 1, 1, 1, 1]","[0, 0, 0, 0, 0, 0, 0, 0, 0, 0, 0, 0, 0, 0, 0, 0, 0, 0, 0, 0, 0, 0, 0, 0, 0, 0, 0, 0, 0, 0, 0, 0, 0, 0, 0, 0, 0, 0, 0, 0, 0, 0, 0, 0, 0, 0, 0, 0, 0, 0, 0, 0, 0, 0, 0, 0, 0, 0, 0, 0, 0, 0]","[0, 0, 0, 0, 0, 0, 0, 0, 0, 0, 0, 0, 0, 0, 0, 0, 0, 0, 0, 0, 0, 0, 0, 0, 0, 0, 0, 0, 0, 0, 0, 0, 0, 0, 0, 0, 0, 0, 0, 0, 0, 0, 0, 0, 0, 0, 0, 0, 0, 0, 0, 0, 0, 0, 0, 0, 0, 0, 0, 0, 0, 0]","[0.0009226999973179772, 0.017123300000093877, 0.03375190000224393, 0.05079989999649115, 0.06744359999720473, 0.08372189999499824, 0.10100759999477305, 0.11694569999235682, 0.1338093999947887, 0.15037370000209194, 0.1671100999956252, 0.18361219999496825, 0.20038680000288878, 0.21695059999183286, 0.2335560999927111, 0.25038329999370035, 0.26685109999380074, 0.28357210000103805, 0.3005074999964563, 0.3168065999925602, 0.33352699999522883, 0.3501659000030486, 0.3670172999991337, 0.38345349999144673, 0.4000889000017196, 0.4169413999916287, 0.4333462999929907, 0.45026359999610577, 0.46673669999290723, 0.4834160000027623, 0.5001169000024674, 0.5163029999966966, 0.5328635000041686, 0.5495792000001529, 0.5661665999941761, 0.58280730000115, 0.59945899999002, 0.6161768000019947, 0.6328512999898521, 0.649334399990039, 0.6659323999920161, 0.6826621999935014, 0.6999247999920044, 0.7159804999973858, 0.7327354000008199, 0.7498327999928733, 0.7668926999904215, 0.7830792000022484, 0.8000396999996156, 0.8166949000005843, 0.8328822999901604, 0.8499864000041271, 0.8665076000033878, 0.883669100003317, 0.8996938999916892, 0.9163418999960413, 0.9330148000008194, 0.9496012000017799, 0.9663399999990361, 0.9828657000034582, 0.9995884999952978, 1.0165513999963878]",1.1049150400067447,None,91.78408650000347,None,91.78408650000347,None,91.78408650000347,None,91.78408650000347,92.29659430000174,91.78408650000347,None,,,,,,,,,,,,,,,,,,,,,,,,,,,,,,,0,001,2020_Oct_14_1342,vm_20xx,2020.2.4,59.71158112132848,
-0.3,0.3,0,,,,,,,,,0,0,0,0,0,9,9,5,,,,,,,,,,,,,,,,,,,,,,,,,,,,,,,,,,,,,,,,,,,92.78032910000184,None,92.78032910000184,None,93.8283897999936,None,92.78032910000184,None,"[0.0, 0.0, 0.0, 0.0, 0.0, 0.0, 0.0, 0.0, 0.0, 0.0, 0.0, 0.0, 0.0, 0.0, 0.0, 0.0, 0.0, 0.0, 0.0, 0.0, 0.0, 0.0, 0.0, 0.0, 0.0, 0.0, 0.0, 0.0, 0.0, 0.0, 0.0, 0.0, 0.0, 0.0, 0.0, 0.0, 0.0, 0.0, 0.0, 0.0, 0.0, -0.01574074074074074, -0.027777777777777776, -0.03611111111111111, -0.05555555555555555, -0.07407407407407407, -0.08703703703703704, -0.10648148148148148, -0.12314814814814815, -0.1398148148148148, -0.1537037037037037, -0.17777777777777778, -0.1925925925925926, -0.20555555555555555, -0.21666666666666667, -0.23425925925925925, -0.24444444444444444]","[0.0, 0.0, 0.0, 0.0, 0.0, 0.0, 0.0, 0.0, 0.0, 0.0, 0.0, 0.0, 0.0, 0.0, 0.0, 0.0, 0.0, 0.0, 0.0, 0.0, 0.0, 0.0, 0.0, 0.0, 0.0, 0.0, 0.0, 0.0, 0.0, 0.0, 0.0, 0.0, 0.0, 0.0, 0.0, 0.0, 0.0, 0.0, 0.0, 0.0, 0.0, -0.025925925925925925, -0.05092592592592592, -0.06759259259259259, -0.0962962962962963, -0.12222222222222222, -0.14074074074074075, -0.1675925925925926, -0.18981481481481483, -0.21203703703703702, -0.22777777777777777, -0.25555555555555554, -0.2759259259259259, -0.29074074074074074, -0.30092592592592593, -0.31851851851851853, -0.3314814814814815]","[0, 0, 0, 0, 0, 0, 0, 0, 0, 0, 0, 0, 0, 0, 0, 0, 0, 0, 0, 0, 0, 0, 0, 0, 0, 0, 1, 1, 1, 1, 1, 1, 1, 1, 1, 1, 1, 1, 1, 1, 1, 1, 1, 1, 1, 1, 1, 1, 1, 1, 1, 1, 1, 1, 1, 1, 1]","[0, 0, 0, 0, 0, 0, 0, 0, 0, 0, 0, 0, 0, 0, 0, 0, 0, 0, 0, 0, 0, 0, 0, 0, 0, 0, 0, 0, 0, 0, 0, 0, 0, 0, 0, 0, 0, 0, 0, 0, 0, 0, 0, 0, 0, 0, 0, 0, 0, 0, 0, 0, 0, 0, 0, 0, 0]","[0, 0, 0, 0, 0, 0, 0, 0, 0, 0, 0, 0, 0, 0, 0, 0, 0, 0, 0, 0, 0, 0, 0, 0, 0, 0, 0, 0, 0, 0, 0, 0, 0, 0, 0, 0, 0, 0, 0, 0, 0, 0, 0, 0, 0, 0, 0, 0, 0, 0, 0, 0, 0, 0, 0, 0, 0]","[0.0009178000036627054, 0.017501299997093156, 0.03397129999939352, 0.050798399999621324, 0.06749780000245664, 0.08412800000223797, 0.10070350000751205, 0.11735689999477472, 0.1340414000005694, 0.15061369999602903, 0.16722620000655297, 0.1838112999976147, 0.20060599999851547, 0.21732739999424666, 0.23433859999931883, 0.2505432000034489, 0.2673648000054527, 0.28378120000706986, 0.30046779999975115, 0.3176566000038292, 0.3335963999998057, 0.3503832999995211, 0.3673678000050131, 0.3840078000066569, 0.400433000002522, 0.41868519999843556, 0.43924259999766946, 0.45442860000184737, 0.46890950000670273, 0.4829388000071049, 0.49964969999564346, 0.5165600000036648, 0.5330341999942902, 0.5496001999999862, 0.5665662999963388, 0.5831272000068566, 0.5996612000017194, 0.6161897999991197, 0.6330161999940174, 0.6495564999931958, 0.6666595999995479, 0.6842472999996971, 0.7001329000049736, 0.7166863000020385, 0.7332888999953866, 0.7514443999971263, 0.7668836999946507, 0.7835694999957923, 0.8000995000038529, 0.8170472000056179, 0.8334319999994477, 0.8502399999997579, 0.8665464999940014, 0.8832562000025064, 0.8999975000042468, 0.91649810000672, 0.9334868000005372]",1.0738425400049891,None,94.79967049999686,None,94.79967049999686,None,94.79967049999686,None,94.79967049999686,95.3103839999967,94.79967049999686,None,,,,,,,,,,,,,,,,,,,,,,,,,,,,,,,0,001,2020_Oct_14_1342,vm_20xx,2020.2.4,59.71158112132848,
-0.3,-0.3,0,,,,,,,,,0,0,0,0,0,10,10,10,,,,,,,,,,,,,,,,,,,,,,,,,,,,,,,,,,,,,,,,,,,95.79468069999712,None,95.79468069999712,None,96.54250489998958,None,95.79468069999712,None,"[0.0, 0.0, 0.0, 0.0, 0.0, 0.0, 0.0, 0.0, 0.0, 0.0, 0.0, 0.0, 0.0, 0.0, 0.0, 0.0, 0.0, 0.0, 0.0, 0.0, 0.0, 0.0, 0.0, 0.0, 0.0, 0.0, 0.0, 0.0, 0.0, 0.0, 0.0, 0.0, 0.0, 0.0, 0.0, 0.0, 0.0, 0.0, 0.0, 0.0, 0.0, 0.0, 0.0, 0.0, 0.0, 0.0, 0.0, 0.0, 0.0, 0.0, 0.0, 0.0, 0.0, 0.0, 0.0, 0.0, 0.0, 0.0, 0.0, 0.0, 0.0, 0.0, 0.0, 0.0, 0.0, 0.012037037037037037, 0.040740740740740744, 0.05555555555555555, 0.0712962962962963, 0.1, 0.11851851851851852, 0.1361111111111111, 0.1638888888888889, 0.18981481481481483, 0.22037037037037038, 0.23796296296296296, 0.25833333333333336, 0.2777777777777778, 0.29259259259259257, 0.30925925925925923, 0.33240740740740743, 0.34444444444444444]","[0.0, 0.0, 0.0, 0.0, 0.0, 0.0, 0.0, 0.0, 0.0, 0.0, 0.0, 0.0, 0.0, 0.0, 0.0, 0.0, 0.0, 0.0, 0.0, 0.0, 0.0, 0.0, 0.0, 0.0, 0.0, 0.0, 0.0, 0.0, 0.0, 0.0, 0.0, 0.0, 0.0, 0.0, 0.0, 0.0, 0.0, 0.0, 0.0, 0.0, 0.0, 0.0, 0.0, 0.0, 0.0, 0.0, 0.0, 0.0, 0.0, 0.0, 0.0, 0.0, 0.0, 0.0, 0.0, 0.0, 0.0, 0.0, 0.0, 0.0, 0.0, 0.0, 0.0, 0.0, 0.0, -0.008333333333333333, -0.028703703703703703, -0.041666666666666664, -0.05185185185185185, -0.07222222222222222, -0.0824074074074074, -0.09166666666666666, -0.10740740740740741, -0.12407407407407407, -0.14537037037037037, -0.15555555555555556, -0.16574074074074074, -0.1787037037037037, -0.18981481481481483, -0.19907407407407407, -0.21481481481481482, -0.22314814814814815]","[0, 0, 0, 0, 0, 0, 0, 0, 0, 0, 0, 0, 0, 0, 0, 0, 0, 0, 0, 0, 0, 0, 0, 0, 0, 0, 0, 0, 0, 0, 0, 0, 0, 0, 0, 0, 0, 0, 0, 0, 0, 0, 0, 0, 0, 0, 0, 0, 0, 1, 1, 1, 1, 1, 1, 1, 1, 1, 1, 1, 1, 1, 1, 1, 1, 1, 1, 1, 1, 1, 1, 1, 1, 1, 1, 1, 1, 1, 1, 1, 1, 1]","[0, 0, 0, 0, 0, 0, 0, 0, 0, 0, 0, 0, 0, 0, 0, 0, 0, 0, 0, 0, 0, 0, 0, 0, 0, 0, 0, 0, 0, 0, 0, 0, 0, 0, 0, 0, 0, 0, 0, 0, 0, 0, 0, 0, 0, 0, 0, 0, 0, 0, 0, 0, 0, 0, 0, 0, 0, 0, 0, 0, 0, 0, 0, 0, 0, 0, 0, 0, 0, 0, 0, 0, 0, 0, 0, 0, 0, 0, 0, 0, 0, 0]","[0, 0, 0, 0, 0, 0, 0, 0, 0, 0, 0, 0, 0, 0, 0, 0, 0, 0, 0, 0, 0, 0, 0, 0, 0, 0, 0, 0, 0, 0, 0, 0, 0, 0, 0, 0, 0, 0, 0, 0, 0, 0, 0, 0, 0, 0, 0, 0, 0, 0, 0, 0, 0, 0, 0, 0, 0, 0, 0, 0, 0, 0, 0, 0, 0, 0, 0, 0, 0, 0, 0, 0, 0, 0, 0, 0, 0, 0, 0, 0, 0, 0]","[0.0009187000105157495, 0.017474899999797344, 0.034059100013109855, 0.05158970000047702, 0.06798150000395253, 0.08399150001059752, 0.10062270000344142, 0.11739360001229215, 0.13393490000453312, 0.150726100007887, 0.16736610000953078, 0.18382310000015423, 0.20063150000351015, 0.2172228000126779, 0.23402450000867248, 0.25062470001284964, 0.26726720000442583, 0.2837763999996241, 0.3005454000085592, 0.3172884000086924, 0.3339527000061935, 0.3503934000036679, 0.36715070001082495, 0.3837334000127157, 0.40045200000167824, 0.4170843000028981, 0.4337215000123251, 0.4502750000101514, 0.46709330000157934, 0.4836236000119243, 0.5002464999997756, 0.5170674000110012, 0.5335892000002787, 0.5503024000063306, 0.5669782000040868, 0.5840487000095891, 0.6001886000012746, 0.6170622000063304, 0.6336462000035681, 0.6556763000116916, 0.6714372000133153, 0.6879875000013271, 0.7039929000020493, 0.7192785000079311, 0.7339654000097653, 0.7503889000072377, 0.7668351000029361, 0.7834001000010176, 0.7998772999999346, 0.8180726000136929, 0.8325231000053464, 0.8494761000038125, 0.8662860000040382, 0.8827753000077792, 0.8994122000003699, 0.9159493000042858, 0.9327473000012105, 0.9498321999999462, 0.9667461000062758, 0.9831361000105971, 1.000207600009162, 1.0179382000060286, 1.0323840000055498, 1.0493198000040138, 1.0664393000042764, 1.083041100006085, 1.1006393000134267, 1.1182765000121435, 1.1347652000113158, 1.1519816000072751, 1.1678564000030747, 1.1838119000021834, 1.199751500011189, 1.216463200005819, 1.2330130000045756, 1.25036760000512, 1.2662721000087913, 1.284246000010171, 1.3020530000067083, 1.319052400009241, 1.3349420000013197, 1.349976900004549]",0.7739518399903318,None,97.91913439999917,None,97.91913439999917,None,97.91913439999917,None,97.91913439999917,98.42403500000364,97.91913439999917,None,,,,,,,,,,,,,,,,,,,,,,,,,,,,,,,0,001,2020_Oct_14_1342,vm_20xx,2020.2.4,59.71158112132848,
-0.3,0.3,0,,,,,,,,,0,0,0,0,0,11,11,13,,,,,,,,,,,,,,,,,,,,,,,,,,,,,,,,,,,,,,,,,,,98.92480849999993,None,98.92480849999993,None,99.67296699999133,None,98.92480849999993,None,"[0.0, 0.0, 0.0, 0.0, 0.0, 0.0, 0.0, 0.0, 0.0, 0.0, 0.0, 0.0, 0.0, 0.0, 0.0, 0.0, 0.0, 0.0, 0.0, 0.0, 0.0, 0.0, 0.0, 0.0, 0.0, 0.0, 0.0, 0.0, 0.0, 0.0, 0.0, 0.0, 0.0, 0.0, 0.0, 0.0, 0.0, 0.0, 0.0, 0.0, 0.0, 0.0, 0.0, 0.0, 0.0, 0.0, 0.0, 0.0, 0.0, 0.0, 0.0, 0.0, 0.0, -0.000925925925925926, -0.004629629629629629, -0.008333333333333333, -0.012962962962962963, -0.017592592592592594, -0.021296296296296296, -0.02962962962962963, -0.04722222222222222, -0.06666666666666667, -0.08333333333333333, -0.1037037037037037, -0.1398148148148148, -0.16296296296296298, -0.18888888888888888, -0.22407407407407406, -0.24074074074074073, -0.26481481481481484, -0.28425925925925927, -0.30648148148148147, -0.3194444444444444, -0.33425925925925926, -0.3472222222222222]","[0.0, 0.0, 0.0, 0.0, 0.0, 0.0, 0.0, 0.0, 0.0, 0.0, 0.0, 0.0, 0.0, 0.0, 0.0, 0.0, 0.0, 0.0, 0.0, 0.0, 0.0, 0.0, 0.0, 0.0, 0.0, 0.0, 0.0, 0.0, 0.0, 0.0, 0.0, 0.0, 0.0, 0.0, 0.0, 0.0, 0.0, 0.0, 0.0, 0.0, 0.0, 0.0, 0.0, 0.0, 0.0, 0.0, 0.0, 0.0, 0.0, 0.0, 0.0, 0.0, 0.0, -0.000925925925925926, -0.002777777777777778, -0.005555555555555556, -0.010185185185185186, -0.013888888888888888, -0.019444444444444445, -0.025, -0.03888888888888889, -0.05462962962962963, -0.06944444444444445, -0.08518518518518518, -0.10555555555555556, -0.11666666666666667, -0.12962962962962962, -0.15185185185185185, -0.16203703703703703, -0.17407407407407408, -0.18333333333333332, -0.1925925925925926, -0.19907407407407407, -0.20925925925925926, -0.21481481481481482]","[0, 0, 0, 0, 0, 0, 0, 0, 0, 0, 0, 0, 0, 0, 0, 0, 0, 0, 0, 0, 0, 0, 0, 0, 0, 0, 0, 0, 0, 0, 0, 0, 0, 0, 0, 0, 0, 0, 0, 0, 1, 1, 1, 1, 1, 1, 1, 1, 1, 1, 1, 1, 1, 1, 1, 1, 1, 1, 1, 1, 1, 1, 1, 1, 1, 1, 1, 1, 1, 1, 1, 1, 1, 1, 1]","[0, 0, 0, 0, 0, 0, 0, 0, 0, 0, 0, 0, 0, 0, 0, 0, 0, 0, 0, 0, 0, 0, 0, 0, 0, 0, 0, 0, 0, 0, 0, 0, 0, 0, 0, 0, 0, 0, 0, 0, 0, 0, 0, 0, 0, 0, 0, 0, 0, 0, 0, 0, 0, 0, 0, 0, 0, 0, 0, 0, 0, 0, 0, 0, 0, 0, 0, 0, 0, 0, 0, 0, 0, 0, 0]","[0, 0, 0, 0, 0, 0, 0, 0, 0, 0, 0, 0, 0, 0, 0, 0, 0, 0, 0, 0, 0, 0, 0, 0, 0, 0, 0, 0, 0, 0, 0, 0, 0, 0, 0, 0, 0, 0, 0, 0, 0, 0, 0, 0, 0, 0, 0, 0, 0, 0, 0, 0, 0, 0, 0, 0, 0, 0, 0, 0, 0, 0, 0, 0, 0, 0, 0, 0, 0, 0, 0, 0, 0, 0, 0]","[0.000913099996978417, 0.017387899992172606, 0.03408800000033807, 0.05071670000324957, 0.06725110000115819, 0.08397179999155924, 0.10060930000327062, 0.11720870000135619, 0.13391699999920093, 0.1505670999904396, 0.1672480999986874, 0.18388480000430718, 0.20057879999512807, 0.2171271999977762, 0.23391029999766033, 0.250477099994896, 0.26729730000079144, 0.283760499994969, 0.300413099990692, 0.3169850999984192, 0.33368029999837745, 0.3502934999996796, 0.36703599999600556, 0.38360600000305567, 0.40031789999920875, 0.41693999999552034, 0.43359939999936614, 0.4502842999936547, 0.46689539999351837, 0.48442389999399893, 0.5001531000016257, 0.5169930999982171, 0.5335114999907091, 0.5502178000024287, 0.5667549999925541, 0.5834662999986904, 0.6003199999977369, 0.616724499996053, 0.6339717999944696, 0.6500519999972312, 0.6685485999914818, 0.6828980999998748, 0.6995900000038091, 0.7160394999955315, 0.7329054000001634, 0.7495702000014717, 0.7660420000029262, 0.7827290999994148, 0.7993542000040179, 0.816431699990062, 0.8330934999976307, 0.8494997999951011, 0.8659808999946108, 0.8833117000031052, 0.9000128999905428, 0.9165349999966566, 0.9330728999921121, 0.9508857000037096, 0.9663589999981923, 0.9835610000009183, 1.0000372999929823, 1.0173623000009684, 1.0330987999914214, 1.0498727999947732, 1.0665624999965075, 1.0835952999914298, 1.0998256000020774, 1.1164202999934787, 1.1329945000034058, 1.1500400999939302, 1.1663353000039933, 1.183266399995773, 1.199534200000926, 1.2162798999925144, 1.2330072999902768]",0.7741768400010187,None,100.93021939999016,None,100.93021939999016,None,100.93021939999016,None,100.93021939999016,101.43797149999591,100.93021939999016,None,,,,,,,,,,,,,,,,,,,,,,,,,,,,,,,0,001,2020_Oct_14_1342,vm_20xx,2020.2.4,59.71158112132848,
0.3,0.3,0,,,,,,,,,0,0,0,0,0,12,12,8,,,,,,,,,,,,,,,,,,,,,,,,,,,,,,,,,,,,,,,,,,,101.93855720000283,None,101.93855720000283,None,102.6534721999924,None,101.93855720000283,None,"[0.0, 0.0, 0.0, 0.0, 0.0, 0.0, 0.0, 0.0, 0.0, 0.0, 0.0, 0.0, 0.0, 0.0, 0.0, 0.0, 0.0, 0.0, 0.0, 0.0, 0.0, 0.0, 0.0, 0.0, 0.0, 0.0, 0.0, 0.0, 0.0, 0.0, 0.0, 0.0, 0.0, 0.0, 0.0, 0.0, 0.0, 0.0, 0.0, 0.0, 0.0, 0.0, 0.0, 0.0, 0.0, 0.0, -0.003703703703703704, -0.030555555555555555, -0.04351851851851852, -0.05925925925925926, -0.0824074074074074, -0.11203703703703703, -0.125, -0.14444444444444443, -0.16666666666666666, -0.18703703703703703, -0.19814814814814816, -0.21296296296296297, -0.22962962962962963, -0.2490740740740741, -0.25925925925925924, -0.26851851851851855, -0.28888888888888886, -0.3, -0.3074074074074074]","[0.0, 0.0, 0.0, 0.0, 0.0, 0.0, 0.0, 0.0, 0.0, 0.0, 0.0, 0.0, 0.0, 0.0, 0.0, 0.0, 0.0, 0.0, 0.0, 0.0, 0.0, 0.0, 0.0, 0.0, 0.0, 0.0, 0.0, 0.0, 0.0, 0.0, 0.0, 0.0, 0.0, 0.0, 0.0, 0.0, 0.0, 0.0, 0.0, 0.0, 0.0, 0.0, 0.0, 0.0, 0.0, 0.0, 0.004629629629629629, 0.037037037037037035, 0.05462962962962963, 0.07314814814814814, 0.09537037037037037, 0.125, 0.1388888888888889, 0.15462962962962962, 0.1712962962962963, 0.18888888888888888, 0.19722222222222222, 0.20833333333333334, 0.21851851851851853, 0.22870370370370371, 0.23703703703703705, 0.24537037037037038, 0.2601851851851852, 0.26481481481481484, 0.27037037037037037]","[0, 0, 0, 0, 0, 0, 0, 0, 0, 0, 0, 0, 0, 0, 0, 0, 0, 0, 0, 0, 0, 0, 0, 0, 0, 0, 0, 0, 0, 0, 1, 1, 1, 1, 1, 1, 1, 1, 1, 1, 1, 1, 1, 1, 1, 1, 1, 1, 1, 1, 1, 1, 1, 1, 1, 1, 1, 1, 1, 1, 1, 1, 1, 1, 1]","[0, 0, 0, 0, 0, 0, 0, 0, 0, 0, 0, 0, 0, 0, 0, 0, 0, 0, 0, 0, 0, 0, 0, 0, 0, 0, 0, 0, 0, 0, 0, 0, 0, 0, 0, 0, 0, 0, 0, 0, 0, 0, 0, 0, 0, 0, 0, 0, 0, 0, 0, 0, 0, 0, 0, 0, 0, 0, 0, 0, 0, 0, 0, 0, 0]","[0, 0, 0, 0, 0, 0, 0, 0, 0, 0, 0, 0, 0, 0, 0, 0, 0, 0, 0, 0, 0, 0, 0, 0, 0, 0, 0, 0, 0, 0, 0, 0, 0, 0, 0, 0, 0, 0, 0, 0, 0, 0, 0, 0, 0, 0, 0, 0, 0, 0, 0, 0, 0, 0, 0, 0, 0, 0, 0, 0, 0, 0, 0, 0, 0]","[0.0009362999990116805, 0.017675299997790717, 0.033992600001511164, 0.05060020000382792, 0.06734740000683814, 0.08398910000687465, 0.10056690000055823, 0.11724490000051446, 0.13500999999814667, 0.1504401999991387, 0.16796000000613276, 0.18394719999923836, 0.20052559999749064, 0.21731690000160597, 0.23383599999942817, 0.2503474999975879, 0.2671958999999333, 0.2838081000081729, 0.3005276000039885, 0.31709919999411795, 0.33400430000619963, 0.3503365000069607, 0.367070699998294, 0.38364919999730773, 0.4002552000019932, 0.4171005999960471, 0.4344089000078384, 0.4501206999993883, 0.4669432999944547, 0.4835698999959277, 0.501633199994103, 0.5161956999945687, 0.533033500003512, 0.5496547000075225, 0.5664328999991994, 0.5828651000047103, 0.5996754999941913, 0.6162304000026779, 0.6329589999950258, 0.649487799993949, 0.6662830999994185, 0.6832214000023669, 0.6994916999974521, 0.7163585999951465, 0.732762300001923, 0.7498666000028607, 0.7670712999970419, 0.7833631999965291, 0.8000189000013052, 0.8171763999998802, 0.8333564000058686, 0.849827500001993, 0.8675655999977607, 0.8831525999994483, 0.8997919999965234, 0.9167461000033654, 0.9340616999979829, 0.9498765000025742, 0.9664847999956692, 0.9831693000014639, 1.0002342999941902, 1.016331499995431, 1.0330595999985235, 1.049744500007364, 1.0669294999970589]",0.740826740002376,None,103.75856429999112,None,103.75856429999112,None,103.75856429999112,None,103.75856429999112,104.26858760000323,103.75856429999112,None,,,,,,,,,,,,,,,,,,,,,,,,,,,,,,,0,001,2020_Oct_14_1342,vm_20xx,2020.2.4,59.71158112132848,
0.3,-0.3,0,,,,,,,,,0,0,0,0,0,13,13,15,,,,,,,,,,,,,,,,,,,,,,,,,,,,,,,,,,,,,,,,,,,104.75281489999907,None,104.75281489999907,None,105.70053129999724,None,104.75281489999907,None,"[0.0, 0.0, 0.0, 0.0, 0.0, 0.0, 0.0, 0.0, 0.0, 0.0, 0.0, 0.0, 0.0, 0.0, 0.0, 0.0, 0.0, 0.0, 0.0, 0.0, 0.0, 0.0, 0.0, 0.0, 0.0, 0.0, 0.0, 0.0, 0.0, 0.0, 0.0, 0.0, 0.0, 0.0, 0.0, 0.0, 0.0, 0.0, 0.0, 0.0, 0.0, 0.0, 0.0, 0.003703703703703704, 0.023148148148148147, 0.04259259259259259, 0.06481481481481481, 0.08425925925925926, 0.10185185185185185, 0.11481481481481481, 0.13425925925925927, 0.15, 0.16574074074074074, 0.18333333333333332, 0.18888888888888888, 0.19722222222222222, 0.20925925925925926, 0.22314814814814815, 0.23055555555555557, 0.23703703703703705, 0.24166666666666667, 0.2518518518518518, 0.25833333333333336, 0.2657407407407407]","[0.0, 0.0, 0.0, 0.0, 0.0, 0.0, 0.0, 0.0, 0.0, 0.0, 0.0, 0.0, 0.0, 0.0, 0.0, 0.0, 0.0, 0.0, 0.0, 0.0, 0.0, 0.0, 0.0, 0.0, 0.0, 0.0, 0.0, 0.0, 0.0, 0.0, 0.0, 0.0, 0.0, 0.0, 0.0, 0.0, 0.0, 0.0, 0.0, 0.0, 0.0, 0.0, 0.0, 0.005555555555555556, 0.024074074074074074, 0.04537037037037037, 0.07037037037037037, 0.09166666666666666, 0.11018518518518519, 0.12685185185185185, 0.14907407407407408, 0.16666666666666666, 0.18425925925925926, 0.2037037037037037, 0.21203703703703702, 0.2212962962962963, 0.23333333333333334, 0.25, 0.2601851851851852, 0.2675925925925926, 0.2740740740740741, 0.2851851851851852, 0.2935185185185185, 0.30277777777777776]","[0, 0, 0, 0, 0, 0, 0, 0, 0, 0, 0, 0, 0, 0, 0, 0, 0, 0, 0, 0, 0, 0, 0, 0, 0, 0, 0, 0, 1, 1, 1, 1, 1, 1, 1, 1, 1, 1, 1, 1, 1, 1, 1, 1, 1, 1, 1, 1, 1, 1, 1, 1, 1, 1, 1, 1, 1, 1, 1, 1, 1, 1, 1, 1]","[0, 0, 0, 0, 0, 0, 0, 0, 0, 0, 0, 0, 0, 0, 0, 0, 0, 0, 0, 0, 0, 0, 0, 0, 0, 0, 0, 0, 0, 0, 0, 0, 0, 0, 0, 0, 0, 0, 0, 0, 0, 0, 0, 0, 0, 0, 0, 0, 0, 0, 0, 0, 0, 0, 0, 0, 0, 0, 0, 0, 0, 0, 0, 0]","[0, 0, 0, 0, 0, 0, 0, 0, 0, 0, 0, 0, 0, 0, 0, 0, 0, 0, 0, 0, 0, 0, 0, 0, 0, 0, 0, 0, 0, 0, 0, 0, 0, 0, 0, 0, 0, 0, 0, 0, 0, 0, 0, 0, 0, 0, 0, 0, 0, 0, 0, 0, 0, 0, 0, 0, 0, 0, 0, 0, 0, 0, 0, 0]","[0.0009203000081470236, 0.01729650000925176, 0.03432679999968968, 0.0513926999992691, 0.06714590000046883, 0.08406269999977667, 0.10069600000861101, 0.11729619999823626, 0.13436100000399165, 0.15056860000186134, 0.16727520000131335, 0.18399850001151208, 0.2006961000006413, 0.21721220000472385, 0.23394270001153927, 0.2506761000113329, 0.26716420000593644, 0.2840116000006674, 0.3005274000024656, 0.3171637000050396, 0.33388980000745505, 0.35048020000976976, 0.36698180000530556, 0.3839260000095237, 0.40030100000149105, 0.4170308000029763, 0.4337291000119876, 0.45034760000999086, 0.46889410000585485, 0.4829724000010174, 0.49984580000455026, 0.5164293999987422, 0.5330472000059672, 0.5498902000108501, 0.5663927999994485, 0.5831119000067702, 0.599901100009447, 0.6163455000059912, 0.6330220000090776, 0.6496632000053069, 0.6666242000064813, 0.6829364000004716, 0.699602100008633, 0.7171696000004886, 0.7332767000043532, 0.7507315000111703, 0.7666390000085812, 0.7842581000004429, 0.8001319000031799, 0.8168551999988267, 0.833385800011456, 0.850133600004483, 0.8668367000063881, 0.8833642000099644, 0.9000424999976531, 0.9167670000024373, 0.933449300006032, 0.9499215000105323, 0.9665778000053251, 0.9833189000055427, 0.9998697000119137, 1.016700000007404, 1.034099199998309, 1.0499201000056928]",0.9736367400037125,None,106.77345739999146,None,106.77345739999146,None,106.77345739999146,None,106.77345739999146,107.28238910000073,106.77345739999146,None,,,,,,,,,,,,,,,,,,,,,,,,,,,,,,,0,001,2020_Oct_14_1342,vm_20xx,2020.2.4,59.71158112132848,
