target_x,target_y,rotation,trials.thisRepN,trials.thisTrialN,trials.thisN,trials.thisIndex,trials_2.thisRepN,trials_2.thisTrialN,trials_2.thisN,trials_2.thisIndex,baseline_trials.thisRepN,baseline_trials.thisTrialN,baseline_trials.thisN,baseline_trials.thisIndex,Welcome.started,Welcome.stopped,mouse.started,mouse.stopped,text.started,text.stopped,mouse_2.started,mouse_2.stopped,demo_enclosing_1.started,demo_enclosing_1.stopped,demo_enclosing.started,demo_enclosing.stopped,demo_target.started,demo_target.stopped,demo_fixation.started,demo_fixation.stopped,demo_mouse.x,demo_mouse.y,demo_mouse.leftButton,demo_mouse.midButton,demo_mouse.rightButton,demo_mouse.time,demo_mouse.started,demo_mouse.stopped,demo_enclosing_feedback_1.started,demo_enclosing_feedback_1.stopped,demo_enclosing_feedback.started,demo_enclosing_feedback.stopped,demo_target_feedback.started,demo_target_feedback.stopped,demo_fixation_feedback.started,demo_fixation_feedback.stopped,demo_score_text.started,demo_score_text.stopped,text_3.started,text_3.stopped,mouse_6.started,mouse_6.stopped,baseline_enclosing_1.started,baseline_enclosing_1.stopped,baseline_enclosing.started,baseline_enclosing.stopped,baseline_target.started,baseline_target.stopped,baseline_fixation.started,baseline_fixation.stopped,baseline_mouse.x,baseline_mouse.y,baseline_mouse.leftButton,baseline_mouse.midButton,baseline_mouse.rightButton,baseline_mouse.time,baseline_mouse.started,baseline_mouse.stopped,baseline_enclosing_feedback_1.started,baseline_enclosing_feedback_1.stopped,baseline_enclosing_feedback.started,baseline_enclosing_feedback.stopped,baseline_target_feedback.started,baseline_target_feedback.stopped,baseline_fixation_feedback.started,baseline_fixation_feedback.stopped,baseline_score_text.started,baseline_score_text.stopped,participant,session,date,expName,psychopyVersion,frameRate,
,,,,,,,,,,,,,,,14.263266800000565,None,0.011466509982710704,None,,,,,,,,,,,,,,,,,,,,,,,,,,,,,,,,,,,,,,,,,,,,,,,,,,,,,,,,,,,,,0,001,2021_Mar_15_1018,vm_20xx,2020.2.4,60.04945673865205,
-0.3,0.3,0,0,0,0,0,0,0,0,1,,,,,,,,,14.618226099992171,None,0.5054268699896056,None,15.54834939999273,None,15.54834939999273,None,16.664996799983783,None,15.54834939999273,None,"[0.0, 0.0, 0.0, 0.0, 0.0, 0.0, 0.0, 0.0, 0.0, 0.0, 0.0, 0.0, 0.0, 0.0, 0.0, 0.0, 0.0, 0.0, 0.0, 0.0, 0.0, 0.0, 0.0, 0.0, 0.0, 0.0, 0.0, 0.0, 0.0, 0.0, 0.0, 0.0, 0.0, -0.02962962962962963, -0.2037037037037037, -0.31666666666666665, -0.4212962962962963]","[0.0, 0.0, 0.0, 0.0, 0.0, 0.0, 0.0, 0.0, 0.0, 0.0, 0.0, 0.0, 0.0, 0.0, 0.0, 0.0, 0.0, 0.0, 0.0, 0.0, 0.0, 0.0, 0.0, 0.0, 0.0, 0.0, 0.0, 0.0, 0.0, 0.0, 0.0, 0.0, 0.0, 0.009259259259259259, 0.1111111111111111, 0.18888888888888888, 0.2574074074074074]","[0, 0, 0, 0, 0, 0, 0, 0, 0, 0, 0, 0, 0, 0, 0, 0, 0, 0, 0, 0, 0, 0, 1, 1, 1, 1, 1, 1, 1, 1, 1, 1, 1, 1, 1, 1, 1]","[0, 0, 0, 0, 0, 0, 0, 0, 0, 0, 0, 0, 0, 0, 0, 0, 0, 0, 0, 0, 0, 0, 0, 0, 0, 0, 0, 0, 0, 0, 0, 0, 0, 0, 0, 0, 0]","[0, 0, 0, 0, 0, 0, 0, 0, 0, 0, 0, 0, 0, 0, 0, 0, 0, 0, 0, 0, 0, 0, 0, 0, 0, 0, 0, 0, 0, 0, 0, 0, 0, 0, 0, 0, 0]","[0.0003415000101085752, 0.01639249999425374, 0.032891100010601804, 0.049127700011013076, 0.06574039999395609, 0.08239369999500923, 0.0989570000092499, 0.11565069999778643, 0.13309630000730976, 0.15057299999170937, 0.16605309999431483, 0.18334170000161976, 0.19894520001253113, 0.2155409000115469, 0.2323096999898553, 0.2489495000045281, 0.26560819998849183, 0.2831130000122357, 0.2999814999930095, 0.31559799998649396, 0.33217350000631995, 0.3487369999929797, 0.36730380001245067, 0.38200029998552054, 0.3981616999953985, 0.41455519999726675, 0.4311028000083752, 0.44782249999116175, 0.4654408000060357, 0.48133330000564456, 0.4982095999876037, 0.5145142000110354, 0.5312970000086352, 0.5480528000043705, 0.5652636000013445, 0.5827117000008002, 0.5998553000099491]",1.1460365600069053,None,17.31977889998234,None,17.31977889998234,None,17.31977889998234,None,17.31977889998234,17.830755000002682,17.31977889998234,None,,,,,,,,,,,,,,,,,,,,,,,,,,,,,,,0,001,2021_Mar_15_1018,vm_20xx,2020.2.4,60.04945673865205,
-0.3,-0.3,0,0,0,0,0,0,1,1,2,,,,,,,,,,,,,18.3006122999941,None,18.3006122999941,None,19.346025599981658,None,18.3006122999941,None,"[0.0, 0.0, 0.0, 0.0, 0.0, 0.0, 0.0, 0.0, 0.0, 0.0, 0.0, 0.0, 0.0, 0.0, 0.0, 0.0, 0.0, 0.0, 0.0, 0.0, 0.0, 0.0, 0.0, 0.0, 0.0, 0.0, 0.0, 0.0, 0.0, 0.0, 0.0, 0.0, 0.0, 0.0, -0.09907407407407408, -0.14166666666666666, -0.19166666666666668, -0.25, -0.27870370370370373]","[0.0, 0.0, 0.0, 0.0, 0.0, 0.0, 0.0, 0.0, 0.0, 0.0, 0.0, 0.0, 0.0, 0.0, 0.0, 0.0, 0.0, 0.0, 0.0, 0.0, 0.0, 0.0, 0.0, 0.0, 0.0, 0.0, 0.0, 0.0, 0.0, 0.0, 0.0, 0.0, 0.0, 0.0, -0.13055555555555556, -0.1787037037037037, -0.24444444444444444, -0.2962962962962963, -0.32314814814814813]","[0, 0, 0, 0, 0, 0, 0, 0, 0, 0, 0, 0, 0, 0, 0, 0, 0, 0, 0, 0, 0, 0, 0, 0, 1, 1, 1, 1, 1, 1, 1, 1, 1, 1, 1, 1, 1, 1, 1]","[0, 0, 0, 0, 0, 0, 0, 0, 0, 0, 0, 0, 0, 0, 0, 0, 0, 0, 0, 0, 0, 0, 0, 0, 0, 0, 0, 0, 0, 0, 0, 0, 0, 0, 0, 0, 0, 0, 0]","[0, 0, 0, 0, 0, 0, 0, 0, 0, 0, 0, 0, 0, 0, 0, 0, 0, 0, 0, 0, 0, 0, 0, 0, 0, 0, 0, 0, 0, 0, 0, 0, 0, 0, 0, 0, 0, 0, 0]","[0.0003282999969087541, 0.017535799997858703, 0.03345789999002591, 0.050262600008863956, 0.06676169999991544, 0.08426679999683984, 0.10016239999094978, 0.11708219998399727, 0.1335374999907799, 0.15016719998675399, 0.1667097999888938, 0.18332579999696463, 0.20043830000213347, 0.2172056999988854, 0.23327339999377728, 0.2499971000070218, 0.2670038999931421, 0.28335929999593645, 0.3004289999953471, 0.31673679998493753, 0.3337240999971982, 0.3504219999886118, 0.366646899987245, 0.38360040000407025, 0.4019034999946598, 0.41636259999359027, 0.4324166000005789, 0.4488740999950096, 0.4664424000075087, 0.4821162000007462, 0.4989808000100311, 0.5160189000016544, 0.5323434000019915, 0.5488945000106469, 0.5662423000030685, 0.5831865000072867, 0.6000173999927938, 0.6171565999975428, 0.6354297999932896]",1.067309669975657,None,20.021267099975375,None,20.021267099975375,None,20.021267099975375,None,20.021267099975375,20.528329399996437,20.021267099975375,None,,,,,,,,,,,,,,,,,,,,,,,,,,,,,,,0,001,2021_Mar_15_1018,vm_20xx,2020.2.4,60.04945673865205,
0.3,0.3,0,0,0,0,0,0,2,2,0,,,,,,,,,,,,,21.013942099991255,None,21.013942099991255,None,21.827742099994794,None,21.013942099991255,None,"[0.0, 0.0, 0.0, 0.0, 0.0, 0.0, 0.0, 0.0, 0.0, 0.0, 0.0, 0.0, 0.0, 0.0, 0.0, 0.0, 0.0, 0.0, 0.0, 0.0, 0.0, 0.0, 0.0, 0.0, 0.0, 0.0, 0.0, 0.0, 0.0, 0.0, 0.041666666666666664, 0.1962962962962963, 0.4111111111111111]","[0.0, 0.0, 0.0, 0.0, 0.0, 0.0, 0.0, 0.0, 0.0, 0.0, 0.0, 0.0, 0.0, 0.0, 0.0, 0.0, 0.0, 0.0, 0.0, 0.0, 0.0, 0.0, 0.0, 0.0, 0.0, 0.0, 0.0, 0.0, 0.0, 0.0, 0.03518518518518519, 0.1935185185185185, 0.39166666666666666]","[0, 0, 0, 0, 0, 0, 0, 0, 0, 0, 0, 0, 0, 0, 0, 0, 0, 0, 0, 0, 0, 0, 1, 1, 1, 1, 1, 1, 1, 1, 1, 1, 1]","[0, 0, 0, 0, 0, 0, 0, 0, 0, 0, 0, 0, 0, 0, 0, 0, 0, 0, 0, 0, 0, 0, 0, 0, 0, 0, 0, 0, 0, 0, 0, 0, 0]","[0, 0, 0, 0, 0, 0, 0, 0, 0, 0, 0, 0, 0, 0, 0, 0, 0, 0, 0, 0, 0, 0, 0, 0, 0, 0, 0, 0, 0, 0, 0, 0, 0]","[0.00032709998777136207, 0.016213599999900907, 0.03267260000575334, 0.04990829998860136, 0.06610689999070019, 0.0827038999996148, 0.09943269999348558, 0.11599699998623691, 0.1330164999817498, 0.14997259998926893, 0.16639989998657256, 0.1826557999884244, 0.19944470000336878, 0.21615349999046884, 0.23370379998232238, 0.2496048999892082, 0.26594690000638366, 0.28247179999016225, 0.29983390000415966, 0.31593350000912324, 0.332784600002924, 0.34997959999600425, 0.36821809998946264, 0.3818199000088498, 0.39905730000464246, 0.4150136999960523, 0.43176179999136366, 0.4490349999978207, 0.46495160000631586, 0.48192749998997897, 0.49910459999227896, 0.5160629999882076, 0.5330199000018183]",0.8386158699868247,None,22.40589509997517,None,22.40589509997517,None,22.40589509997517,None,22.40589509997517,22.909388000000035,22.40589509997517,None,,,,,,,,,,,,,,,,,,,,,,,,,,,,,,,0,001,2021_Mar_15_1018,vm_20xx,2020.2.4,60.04945673865205,
0.3,-0.3,0,0,0,0,0,0,3,3,3,,,,,,,,,,,,,23.3942794999748,None,23.3942794999748,None,24.075477099977434,None,23.3942794999748,None,"[0.0, 0.0, 0.0, 0.0, 0.0, 0.0, 0.0, 0.0, 0.0, 0.0, 0.0, 0.0, 0.0, 0.0, 0.0, 0.0, 0.0, 0.0, 0.0, 0.0, 0.0, 0.0, 0.0, 0.0, 0.0, 0.0, 0.0, 0.0, 0.0, 0.0, 0.05092592592592592, 0.16296296296296298, 0.41203703703703703]","[0.0, 0.0, 0.0, 0.0, 0.0, 0.0, 0.0, 0.0, 0.0, 0.0, 0.0, 0.0, 0.0, 0.0, 0.0, 0.0, 0.0, 0.0, 0.0, 0.0, 0.0, 0.0, 0.0, 0.0, 0.0, 0.0, 0.0, 0.0, 0.0, 0.0, -0.06759259259259259, -0.20462962962962963, -0.49444444444444446]","[0, 0, 0, 0, 0, 0, 0, 0, 0, 0, 0, 0, 0, 0, 0, 0, 0, 0, 0, 0, 0, 1, 1, 1, 1, 1, 1, 1, 1, 1, 1, 1, 1]","[0, 0, 0, 0, 0, 0, 0, 0, 0, 0, 0, 0, 0, 0, 0, 0, 0, 0, 0, 0, 0, 0, 0, 0, 0, 0, 0, 0, 0, 0, 0, 0, 0]","[0, 0, 0, 0, 0, 0, 0, 0, 0, 0, 0, 0, 0, 0, 0, 0, 0, 0, 0, 0, 0, 0, 0, 0, 0, 0, 0, 0, 0, 0, 0, 0, 0]","[0.00035030001890845597, 0.016199600009713322, 0.032225800008745864, 0.0490159000037238, 0.06561489999876358, 0.08246210002107546, 0.09926030001952313, 0.11558640000293963, 0.1321174000040628, 0.14911850000498816, 0.16589530001510866, 0.18206810002448037, 0.1988273000170011, 0.21540360001381487, 0.23215190001064911, 0.24952310000662692, 0.2653885000036098, 0.2822435000271071, 0.299488900025608, 0.3154921000241302, 0.33239039999898523, 0.35070410001208074, 0.36457679999875836, 0.3812772000092082, 0.3977825000183657, 0.4144424000114668, 0.43122160001075827, 0.4478469000023324, 0.4645170000148937, 0.4810617000039201, 0.49830669999937527, 0.515116599999601, 0.5323557000083383]",0.7059181700169574,None,24.6439666999795,None,24.6439666999795,None,24.6439666999795,None,24.6439666999795,25.1580466000014,24.6439666999795,None,,,,,,,,,,,,,,,,,,,,,,,,,,,,,,,0,001,2021_Mar_15_1018,vm_20xx,2020.2.4,60.04945673865205,
,,,0,0,0,0,,,,,,,,,,,,,,,,,,,,,,,,,,,,,,,,,,,,,,,,,,,,,,,,,,,,,,,,,,,,,,,,,,,,,,,,,0,001,2021_Mar_15_1018,vm_20xx,2020.2.4,60.04945673865205,
-0.3,0.3,0,1,0,1,0,0,0,0,1,,,,,,,,,25.640457100002095,None,0.5088060699927155,None,26.46754799998598,None,26.46754799998598,None,27.572011299984297,None,26.46754799998598,None,"[0.0, 0.0, 0.0, 0.0, 0.0, 0.0, 0.0, 0.0, 0.0, 0.0, 0.0, 0.0, 0.0, 0.0, 0.0, 0.0, 0.0, 0.0, 0.0, 0.0, 0.0, 0.0, 0.0, 0.0, 0.0, 0.0, 0.0, 0.0, 0.0, 0.0, 0.0, 0.0, 0.0, -0.032407407407407406, -0.08055555555555556, -0.1175925925925926, -0.17777777777777778, -0.2037037037037037, -0.22592592592592592, -0.24351851851851852, -0.25925925925925924, -0.2657407407407407, -0.2777777777777778, -0.2962962962962963, -0.3037037037037037]","[0.0, 0.0, 0.0, 0.0, 0.0, 0.0, 0.0, 0.0, 0.0, 0.0, 0.0, 0.0, 0.0, 0.0, 0.0, 0.0, 0.0, 0.0, 0.0, 0.0, 0.0, 0.0, 0.0, 0.0, 0.0, 0.0, 0.0, 0.0, 0.0, 0.0, 0.0, 0.0, 0.0, 0.024074074074074074, 0.06481481481481481, 0.10185185185185185, 0.15925925925925927, 0.18425925925925926, 0.20555555555555555, 0.22314814814814815, 0.23796296296296296, 0.2462962962962963, 0.25833333333333336, 0.275, 0.2851851851851852]","[0, 0, 0, 0, 0, 0, 0, 0, 0, 0, 0, 0, 0, 0, 0, 0, 0, 0, 0, 0, 0, 0, 1, 1, 1, 1, 1, 1, 1, 1, 1, 1, 1, 1, 1, 1, 1, 1, 1, 1, 1, 1, 1, 1, 1]","[0, 0, 0, 0, 0, 0, 0, 0, 0, 0, 0, 0, 0, 0, 0, 0, 0, 0, 0, 0, 0, 0, 0, 0, 0, 0, 0, 0, 0, 0, 0, 0, 0, 0, 0, 0, 0, 0, 0, 0, 0, 0, 0, 0, 0]","[0, 0, 0, 0, 0, 0, 0, 0, 0, 0, 0, 0, 0, 0, 0, 0, 0, 0, 0, 0, 0, 0, 0, 0, 0, 0, 0, 0, 0, 0, 0, 0, 0, 0, 0, 0, 0, 0, 0, 0, 0, 0, 0, 0, 0]","[0.0003449000068940222, 0.01612879999447614, 0.03275939999730326, 0.049366199993528426, 0.067308800003957, 0.08250390001921915, 0.09938460000557825, 0.11633690001326613, 0.13256550001096912, 0.14938479999545962, 0.16603039999608882, 0.18293589999666438, 0.20022500000777654, 0.21638769999844953, 0.2324782000214327, 0.2501115000050049, 0.2662711000011768, 0.2831453999970108, 0.29973520000930876, 0.31591560001834296, 0.33292300000903197, 0.3488870000001043, 0.3688109000213444, 0.38259650001418777, 0.3983340999984648, 0.4150812000152655, 0.43157320001046173, 0.4482527000072878, 0.4648761000134982, 0.4827375000168104, 0.49877820000983775, 0.5149031000037212, 0.5311877000203822, 0.5490452999947593, 0.5652653000142891, 0.5820994999958202, 0.5986067000194453, 0.6161267000134103, 0.6321811999951024, 0.6492411000072025, 0.6654314000043087, 0.6819102000154089, 0.6987925000139512, 0.7162121000001207, 0.733808000019053]",1.130576609983109,None,28.354233399993973,None,28.354233399993973,None,28.354233399993973,None,28.354233399993973,28.85392949997913,28.354233399993973,None,,,,,,,,,,,,,,,,,,,,,,,,,,,,,,,0,001,2021_Mar_15_1018,vm_20xx,2020.2.4,60.04945673865205,
0.3,0.3,0,1,0,1,0,0,1,1,0,,,,,,,,,,,,,29.34173479999299,None,29.34173479999299,None,30.485480899980757,None,29.34173479999299,None,"[0.0, 0.0, 0.0, 0.0, 0.0, 0.0, 0.0, 0.0, 0.0, 0.0, 0.0, 0.0, 0.0, 0.0, 0.0, 0.0, 0.0, 0.0, 0.0, 0.0, 0.0, 0.0, 0.0, 0.0, 0.0, 0.0, 0.0, 0.0, 0.0, 0.0, 0.0, 0.0, 0.0, 0.0, 0.0, 0.0, 0.0, 0.012962962962962963, 0.027777777777777776, 0.04722222222222222, 0.0712962962962963, 0.08333333333333333, 0.10092592592592593, 0.1175925925925926, 0.14351851851851852, 0.1574074074074074, 0.1712962962962963, 0.18981481481481483, 0.21944444444444444, 0.23148148148148148, 0.24444444444444444, 0.26481481481481484, 0.2759259259259259, 0.2851851851851852, 0.2935185185185185, 0.30462962962962964]","[0.0, 0.0, 0.0, 0.0, 0.0, 0.0, 0.0, 0.0, 0.0, 0.0, 0.0, 0.0, 0.0, 0.0, 0.0, 0.0, 0.0, 0.0, 0.0, 0.0, 0.0, 0.0, 0.0, 0.0, 0.0, 0.0, 0.0, 0.0, 0.0, 0.0, 0.0, 0.0, 0.0, 0.0, 0.0, 0.0, 0.0, 0.013888888888888888, 0.02962962962962963, 0.04814814814814815, 0.07407407407407407, 0.08611111111111111, 0.10185185185185185, 0.11944444444444445, 0.14351851851851852, 0.1574074074074074, 0.17037037037037037, 0.18981481481481483, 0.2175925925925926, 0.22777777777777777, 0.24074074074074073, 0.25462962962962965, 0.2638888888888889, 0.26944444444444443, 0.2740740740740741, 0.28425925925925927]","[0, 0, 0, 0, 0, 0, 0, 0, 0, 0, 0, 0, 0, 0, 0, 0, 0, 0, 0, 0, 0, 0, 1, 1, 1, 1, 1, 1, 1, 1, 1, 1, 1, 1, 1, 1, 1, 1, 1, 1, 1, 1, 1, 1, 1, 1, 1, 1, 1, 1, 1, 1, 1, 1, 1, 1]","[0, 0, 0, 0, 0, 0, 0, 0, 0, 0, 0, 0, 0, 0, 0, 0, 0, 0, 0, 0, 0, 0, 0, 0, 0, 0, 0, 0, 0, 0, 0, 0, 0, 0, 0, 0, 0, 0, 0, 0, 0, 0, 0, 0, 0, 0, 0, 0, 0, 0, 0, 0, 0, 0, 0, 0]","[0, 0, 0, 0, 0, 0, 0, 0, 0, 0, 0, 0, 0, 0, 0, 0, 0, 0, 0, 0, 0, 0, 0, 0, 0, 0, 0, 0, 0, 0, 0, 0, 0, 0, 0, 0, 0, 0, 0, 0, 0, 0, 0, 0, 0, 0, 0, 0, 0, 0, 0, 0, 0, 0, 0, 0]","[0.0003648999845609069, 0.01691400000709109, 0.033653799997409806, 0.05012659999192692, 0.06704150000587106, 0.08427829999709502, 0.10005609999643639, 0.1173828000028152, 0.1334867999830749, 0.15066779998596758, 0.1672285000095144, 0.1843747999810148, 0.2004593999881763, 0.2174030999885872, 0.23413989998516627, 0.25056789998780005, 0.26675529999192804, 0.2839156999834813, 0.29993589999503456, 0.3166174000070896, 0.33455279999179766, 0.3502188999846112, 0.3681759999890346, 0.3829093000094872, 0.3990873000002466, 0.416638900001999, 0.4328752000001259, 0.44974209999782033, 0.46563869999954477, 0.48313159999088384, 0.4999701000051573, 0.5203483999939635, 0.5341447999817319, 0.5490874999959487, 0.5660858000046574, 0.5830760999815539, 0.5988645000034012, 0.6158915999985766, 0.6329708999837749, 0.6502064999949653, 0.6668632999935653, 0.6829377999820281, 0.7001432999968529, 0.7159339000063483, 0.7330505999852903, 0.7496710999985225, 0.7662626999954227, 0.7826837000029627, 0.7993198999902233, 0.816613300004974, 0.8336183000064921, 0.8506782999902498, 0.8669282000046223, 0.8826230999839026, 0.899932300002547, 0.9179826999898069]",1.1654349699965678,None,31.44635539999581,None,31.44635539999581,None,31.44635539999581,None,31.44635539999581,31.950862799974857,31.44635539999581,None,,,,,,,,,,,,,,,,,,,,,,,,,,,,,,,0,001,2021_Mar_15_1018,vm_20xx,2020.2.4,60.04945673865205,
-0.3,-0.3,0,1,0,1,0,0,2,2,2,,,,,,,,,,,,,32.436334699974395,None,32.436334699974395,None,33.3829146999924,None,32.436334699974395,None,"[0.0, 0.0, 0.0, 0.0, 0.0, 0.0, 0.0, 0.0, 0.0, 0.0, 0.0, 0.0, 0.0, 0.0, 0.0, 0.0, 0.0, 0.0, 0.0, 0.0, 0.0, 0.0, 0.0, 0.0, 0.0, 0.0, 0.0, 0.0, 0.0, 0.0, 0.0, 0.0, 0.0, 0.0, 0.0, 0.0, 0.0, 0.0, 0.0, 0.0, 0.0, 0.0, 0.0, -0.001851851851851852, -0.013888888888888888, -0.027777777777777776, -0.03518518518518519, -0.041666666666666664, -0.05092592592592592, -0.06759259259259259, -0.0787037037037037, -0.08611111111111111, -0.09259259259259259, -0.1037037037037037, -0.11481481481481481, -0.1259259259259259, -0.14444444444444443, -0.15462962962962962, -0.1648148148148148, -0.175, -0.18611111111111112, -0.20462962962962963, -0.21481481481481482, -0.225, -0.23703703703703705, -0.25, -0.2601851851851852, -0.26666666666666666, -0.2777777777777778, -0.2833333333333333, -0.28703703703703703, -0.29444444444444445, -0.30277777777777776, -0.30925925925925923, -0.3148148148148148, -0.3194444444444444]","[0.0, 0.0, 0.0, 0.0, 0.0, 0.0, 0.0, 0.0, 0.0, 0.0, 0.0, 0.0, 0.0, 0.0, 0.0, 0.0, 0.0, 0.0, 0.0, 0.0, 0.0, 0.0, 0.0, 0.0, 0.0, 0.0, 0.0, 0.0, 0.0, 0.0, 0.0, 0.0, 0.0, 0.0, 0.0, 0.0, 0.0, 0.0, 0.0, 0.0, 0.0, 0.0, 0.0, -0.001851851851851852, -0.011111111111111112, -0.018518518518518517, -0.024074074074074074, -0.028703703703703703, -0.03425925925925926, -0.04722222222222222, -0.05462962962962963, -0.06018518518518518, -0.06388888888888888, -0.07407407407407407, -0.08333333333333333, -0.09074074074074075, -0.10277777777777777, -0.11481481481481481, -0.125, -0.13518518518518519, -0.14444444444444443, -0.15833333333333333, -0.16666666666666666, -0.17592592592592593, -0.18888888888888888, -0.20277777777777778, -0.20925925925925926, -0.2175925925925926, -0.225, -0.22962962962962963, -0.23425925925925925, -0.2388888888888889, -0.24814814814814815, -0.2537037037037037, -0.25833333333333336, -0.26296296296296295]","[0, 0, 0, 0, 0, 0, 0, 0, 0, 0, 0, 0, 0, 0, 0, 0, 0, 0, 0, 0, 0, 0, 0, 0, 0, 0, 0, 0, 1, 1, 1, 1, 1, 1, 1, 1, 1, 1, 1, 1, 1, 1, 1, 1, 1, 1, 1, 1, 1, 1, 1, 1, 1, 1, 1, 1, 1, 1, 1, 1, 1, 1, 1, 1, 1, 1, 1, 1, 1, 1, 1, 1, 1, 1, 1, 1]","[0, 0, 0, 0, 0, 0, 0, 0, 0, 0, 0, 0, 0, 0, 0, 0, 0, 0, 0, 0, 0, 0, 0, 0, 0, 0, 0, 0, 0, 0, 0, 0, 0, 0, 0, 0, 0, 0, 0, 0, 0, 0, 0, 0, 0, 0, 0, 0, 0, 0, 0, 0, 0, 0, 0, 0, 0, 0, 0, 0, 0, 0, 0, 0, 0, 0, 0, 0, 0, 0, 0, 0, 0, 0, 0, 0]","[0, 0, 0, 0, 0, 0, 0, 0, 0, 0, 0, 0, 0, 0, 0, 0, 0, 0, 0, 0, 0, 0, 0, 0, 0, 0, 0, 0, 0, 0, 0, 0, 0, 0, 0, 0, 0, 0, 0, 0, 0, 0, 0, 0, 0, 0, 0, 0, 0, 0, 0, 0, 0, 0, 0, 0, 0, 0, 0, 0, 0, 0, 0, 0, 0, 0, 0, 0, 0, 0, 0, 0, 0, 0, 0, 0]","[0.0003547999949660152, 0.017590600007679313, 0.03366830002050847, 0.05074100001365878, 0.06761690002167597, 0.08364060000167228, 0.1004423999984283, 0.11687830000300892, 0.13352390000363812, 0.14989719999721274, 0.16744640000979416, 0.18373520000022836, 0.1999859000206925, 0.21651260001817718, 0.23320400001830421, 0.2505768999981228, 0.2666643999982625, 0.28331709999474697, 0.3006265000149142, 0.31734800001140684, 0.3332830000144895, 0.3506180999975186, 0.3666986000025645, 0.3832913000078406, 0.40014630000223406, 0.4164079000183847, 0.4340457000071183, 0.44965970001067035, 0.4677197000128217, 0.4826455000147689, 0.49887730000773445, 0.5156511999957729, 0.5323750000097789, 0.548951600008877, 0.5656693000055384, 0.5823935000225902, 0.598770600015996, 0.6158422000007704, 0.6323475000099279, 0.6491677000012714, 0.6654407000169158, 0.6823984000075143, 0.6985535999992862, 0.7166282999969553, 0.7326427999942098, 0.7505357000045478, 0.7665699000062887, 0.7826556000218261, 0.7996257000195328, 0.8173540999996476, 0.8326243000046816, 0.8502092999988236, 0.8660251999972388, 0.8836535000009462, 0.899081000010483, 0.9162212999945041, 0.9342071000137366, 0.9495897000015248, 0.9664115000050515, 0.982401800021762, 0.9988207000133116, 1.015667300001951, 1.0334611000143923, 1.0492174999963026, 1.0663128000160214, 1.082478500000434, 1.099550300015835, 1.1161316000216175, 1.1335480000125244, 1.1497128000191879, 1.1656290999962948, 1.1825603000179399, 1.1999054000189062, 1.216146699996898, 1.2320976000046358, 1.2501455000019632]",0.9704255699762143,None,34.672056999988854,None,34.672056999988854,None,34.672056999988854,None,34.672056999988854,35.181271899986314,34.672056999988854,None,,,,,,,,,,,,,,,,,,,,,,,,,,,,,,,0,001,2021_Mar_15_1018,vm_20xx,2020.2.4,60.04945673865205,
0.3,-0.3,0,1,0,1,0,0,3,3,3,,,,,,,,,,,,,35.66760909999721,None,35.66760909999721,None,36.28010989999166,None,35.66760909999721,None,"[0.0, 0.0, 0.0, 0.0, 0.0, 0.0, 0.0, 0.0, 0.0, 0.0, 0.0, 0.0, 0.0, 0.0, 0.0, 0.0, 0.0, 0.0, 0.0, 0.0, 0.0, 0.0, 0.0, 0.0, 0.0, 0.0, 0.0, 0.0, 0.0, 0.0, 0.0, 0.0, 0.0, 0.0, 0.0, 0.0, 0.0, 0.0, 0.0, 0.0, 0.0, 0.0, 0.0, 0.0, 0.0, 0.0, 0.0, 0.22407407407407406, 0.4166666666666667]","[0.0, 0.0, 0.0, 0.0, 0.0, 0.0, 0.0, 0.0, 0.0, 0.0, 0.0, 0.0, 0.0, 0.0, 0.0, 0.0, 0.0, 0.0, 0.0, 0.0, 0.0, 0.0, 0.0, 0.0, 0.0, 0.0, 0.0, 0.0, 0.0, 0.0, 0.0, 0.0, 0.0, 0.0, 0.0, 0.0, 0.0, 0.0, 0.0, 0.0, 0.0, 0.0, 0.0, 0.0, 0.0, 0.0, 0.0, -0.27037037037037037, -0.49074074074074076]","[0, 0, 0, 0, 0, 0, 0, 0, 0, 0, 0, 0, 0, 0, 0, 0, 0, 0, 0, 0, 0, 0, 0, 0, 0, 0, 0, 0, 0, 0, 0, 0, 0, 0, 0, 1, 1, 1, 1, 1, 1, 1, 1, 1, 1, 1, 1, 1, 1]","[0, 0, 0, 0, 0, 0, 0, 0, 0, 0, 0, 0, 0, 0, 0, 0, 0, 0, 0, 0, 0, 0, 0, 0, 0, 0, 0, 0, 0, 0, 0, 0, 0, 0, 0, 0, 0, 0, 0, 0, 0, 0, 0, 0, 0, 0, 0, 0, 0]","[0, 0, 0, 0, 0, 0, 0, 0, 0, 0, 0, 0, 0, 0, 0, 0, 0, 0, 0, 0, 0, 0, 0, 0, 0, 0, 0, 0, 0, 0, 0, 0, 0, 0, 0, 0, 0, 0, 0, 0, 0, 0, 0, 0, 0, 0, 0, 0, 0]","[0.0003871000080835074, 0.01653749999240972, 0.03392760001588613, 0.050538400013465434, 0.06689440002082847, 0.0831395999994129, 0.09987910001655109, 0.11698019999312237, 0.1330487999948673, 0.14989780000178143, 0.16641190001973882, 0.18338740000035614, 0.1996905000123661, 0.21665390001726337, 0.233780000009574, 0.24953760000062175, 0.2663297000108287, 0.28376720001688227, 0.3001527000160422, 0.3171870000078343, 0.3330724000115879, 0.34938930001226254, 0.366311499994481, 0.38288839999586344, 0.39945329999318346, 0.4162157000100706, 0.4332656000042334, 0.4494976999994833, 0.4661013000004459, 0.48273499999777414, 0.49937999999383464, 0.5161362999933772, 0.5326479999930598, 0.550588100013556, 0.5663809000106994, 0.586060700006783, 0.5992642000201158, 0.6150994000199717, 0.6320070000074338, 0.6484398000175133, 0.665033700002823, 0.6817387000191957, 0.6982666999974754, 0.715214299998479, 0.7316903000173625, 0.7484298000053968, 0.765305700013414, 0.78338390000863, 0.8002656000026036]",0.6358889699913561,None,37.12927769997623,None,37.12927769997623,None,37.12927769997623,None,37.12927769997623,37.6287121999776,37.12927769997623,None,,,,,,,,,,,,,,,,,,,,,,,,,,,,,,,0,001,2021_Mar_15_1018,vm_20xx,2020.2.4,60.04945673865205,
,,,1,0,1,0,,,,,,,,,,,,,,,,,,,,,,,,,,,,,,,,,,,,,,,,,,,,,,,,,,,,,,,,,,,,,,,,,,,,,,,,,0,001,2021_Mar_15_1018,vm_20xx,2020.2.4,60.04945673865205,
,,,,,,,,,,,,,,,,,,,,,,,,,,,,,,,,,,,,,,,,,,,,,,,,,38.11242619997938,None,1.0092863700119779,None,,,,,,,,,,,,,,,,,,,,,,,,,,,0,001,2021_Mar_15_1018,vm_20xx,2020.2.4,60.04945673865205,
0.3,-0.3,0,,,,,,,,,0,0,0,7,,,,,,,,,,,,,,,,,,,,,,,,,,,,,,,,,,,,,,,39.660678499989444,None,39.660678499989444,None,40.62601059998269,None,39.660678499989444,None,"[0.0, 0.0, 0.0, 0.0, 0.0, 0.0, 0.0, 0.0, 0.0, 0.0, 0.0, 0.0, 0.0, 0.0, 0.0, 0.0, 0.0, 0.0, 0.0, 0.0, 0.0, 0.0, 0.0, 0.0, 0.0, 0.0, 0.0, 0.0, 0.0, 0.0, 0.0, 0.0, 0.0, 0.0, 0.0, 0.0, 0.0, 0.0, 0.0, 0.0, 0.0, 0.0, 0.0, 0.0, 0.0, 0.0, 0.0, 0.0, 0.0, 0.0, 0.0, 0.0, 0.0, 0.0, 0.0, 0.0, 0.0, 0.0, 0.0, 0.024074074074074074, 0.2, 0.3712962962962963]","[0.0, 0.0, 0.0, 0.0, 0.0, 0.0, 0.0, 0.0, 0.0, 0.0, 0.0, 0.0, 0.0, 0.0, 0.0, 0.0, 0.0, 0.0, 0.0, 0.0, 0.0, 0.0, 0.0, 0.0, 0.0, 0.0, 0.0, 0.0, 0.0, 0.0, 0.0, 0.0, 0.0, 0.0, 0.0, 0.0, 0.0, 0.0, 0.0, 0.0, 0.0, 0.0, 0.0, 0.0, 0.0, 0.0, 0.0, 0.0, 0.0, 0.0, 0.0, 0.0, 0.0, 0.0, 0.0, 0.0, 0.0, 0.0, 0.0, -0.037037037037037035, -0.225, -0.37222222222222223]","[0, 0, 0, 0, 0, 0, 0, 0, 0, 0, 0, 0, 0, 0, 0, 0, 0, 0, 0, 0, 0, 0, 0, 0, 0, 0, 0, 0, 0, 0, 0, 0, 0, 0, 0, 0, 0, 0, 0, 0, 0, 0, 0, 0, 0, 0, 0, 0, 0, 1, 1, 1, 1, 1, 1, 1, 1, 1, 1, 1, 1, 1]","[0, 0, 0, 0, 0, 0, 0, 0, 0, 0, 0, 0, 0, 0, 0, 0, 0, 0, 0, 0, 0, 0, 0, 0, 0, 0, 0, 0, 0, 0, 0, 0, 0, 0, 0, 0, 0, 0, 0, 0, 0, 0, 0, 0, 0, 0, 0, 0, 0, 0, 0, 0, 0, 0, 0, 0, 0, 0, 0, 0, 0, 0]","[0, 0, 0, 0, 0, 0, 0, 0, 0, 0, 0, 0, 0, 0, 0, 0, 0, 0, 0, 0, 0, 0, 0, 0, 0, 0, 0, 0, 0, 0, 0, 0, 0, 0, 0, 0, 0, 0, 0, 0, 0, 0, 0, 0, 0, 0, 0, 0, 0, 0, 0, 0, 0, 0, 0, 0, 0, 0, 0, 0, 0, 0]","[0.0008525000012014061, 0.017420400021364912, 0.03422550001414493, 0.05066940002143383, 0.06794450001325458, 0.08564420000766404, 0.10088130002259277, 0.1180045000219252, 0.13421780001954176, 0.15102210000623018, 0.1677487000124529, 0.18450940001639538, 0.20082140000886284, 0.21734030000516213, 0.234209300018847, 0.251132300007157, 0.26723770002718084, 0.2840320000250358, 0.3005882000143174, 0.31719600001815706, 0.33391780001693405, 0.35051250000833534, 0.36705260002054274, 0.3839703000267036, 0.40084280000883155, 0.41710460002650507, 0.4336234000220429, 0.45051530000637285, 0.4675897000124678, 0.48405020000063814, 0.5006714000192005, 0.5170433000021148, 0.5337891000090167, 0.5504558000247926, 0.567390800017165, 0.5846106000244617, 0.6007410000020172, 0.6170799000246916, 0.633635600010166, 0.6507166000083089, 0.6668197000108194, 0.6837114000227302, 0.7003798000223469, 0.7170564000261948, 0.7333429999998771, 0.7512466000043787, 0.7668638000031933, 0.7838910999998916, 0.8000405000057071, 0.8178262000146788, 0.8340123000089079, 0.8497985000140034, 0.8665695000090636, 0.88277000002563, 0.8995424000022467, 0.9163319000217598, 0.9327628000173718, 0.9494415000081062, 0.9664808000088669, 0.9834870000195224, 1.0000105000217445, 1.0176995000219904]",0.988624110003002,None,41.68834569997853,None,41.68834569997853,None,41.68834569997853,None,41.68834569997853,42.191112300002715,41.68834569997853,None,0,001,2021_Mar_15_1018,vm_20xx,2020.2.4,60.04945673865205,
-0.3,-0.3,0,,,,,,,,,0,1,1,6,,,,,,,,,,,,,,,,,,,,,,,,,,,,,,,,,,,,,,,42.695352299982915,None,42.695352299982915,None,44.007093899999745,None,42.695352299982915,None,"[0.0, 0.0, 0.0, 0.0, 0.0, 0.0, 0.0, 0.0, 0.0, 0.0, 0.0, 0.0, 0.0, 0.0, 0.0, 0.0, 0.0, 0.0, 0.0, 0.0, 0.0, 0.0, 0.0, 0.0, 0.0, 0.0, 0.0, 0.0, 0.0, 0.0, 0.0, 0.0, 0.0, 0.0, 0.0, -0.027777777777777776, -0.15462962962962962, -0.22037037037037038, -0.2833333333333333, -0.3148148148148148]","[0.0, 0.0, 0.0, 0.0, 0.0, 0.0, 0.0, 0.0, 0.0, 0.0, 0.0, 0.0, 0.0, 0.0, 0.0, 0.0, 0.0, 0.0, 0.0, 0.0, 0.0, 0.0, 0.0, 0.0, 0.0, 0.0, 0.0, 0.0, 0.0, 0.0, 0.0, 0.0, 0.0, 0.0, 0.0, -0.025, -0.125, -0.17222222222222222, -0.20925925925925926, -0.22685185185185186]","[0, 0, 0, 0, 0, 0, 0, 0, 0, 0, 0, 0, 0, 0, 0, 0, 0, 0, 0, 0, 0, 0, 0, 0, 0, 1, 1, 1, 1, 1, 1, 1, 1, 1, 1, 1, 1, 1, 1, 1]","[0, 0, 0, 0, 0, 0, 0, 0, 0, 0, 0, 0, 0, 0, 0, 0, 0, 0, 0, 0, 0, 0, 0, 0, 0, 0, 0, 0, 0, 0, 0, 0, 0, 0, 0, 0, 0, 0, 0, 0]","[0, 0, 0, 0, 0, 0, 0, 0, 0, 0, 0, 0, 0, 0, 0, 0, 0, 0, 0, 0, 0, 0, 0, 0, 0, 0, 0, 0, 0, 0, 0, 0, 0, 0, 0, 0, 0, 0, 0, 0]","[0.0008557999972254038, 0.01678039997932501, 0.0336578999995254, 0.050879199989140034, 0.06691699998918921, 0.08404529999825172, 0.09987549998913892, 0.11638029999448918, 0.13307449998683296, 0.15001979999942705, 0.16641799997887574, 0.183652899984736, 0.19972829998005182, 0.21651460000430234, 0.23387899997760542, 0.2497811999928672, 0.2664459999941755, 0.28375919998507015, 0.30031140000210144, 0.3167066999885719, 0.33333649998530746, 0.34968809998827055, 0.3665092999872286, 0.383652999997139, 0.3994970999774523, 0.41782279999461025, 0.4330067999835592, 0.44902460000594147, 0.465769000002183, 0.4822859999840148, 0.4992387999955099, 0.5163965999963693, 0.5321605999779422, 0.5496393999783322, 0.5663810999831185, 0.5838796999887563, 0.599651399999857, 0.6172258000005968, 0.6330525999946985, 0.6497717000020202]",1.332595069980016,None,44.69430899998406,None,44.69430899998406,None,44.69430899998406,None,44.69430899998406,45.205434499977855,44.69430899998406,None,0,001,2021_Mar_15_1018,vm_20xx,2020.2.4,60.04945673865205,
-0.3,-0.3,0,,,,,,,,,0,2,2,14,,,,,,,,,,,,,,,,,,,,,,,,,,,,,,,,,,,,,,,45.690631399978884,None,45.690631399978884,None,46.78681900000083,None,45.690631399978884,None,"[0.0, 0.0, 0.0, 0.0, 0.0, 0.0, 0.0, 0.0, 0.0, 0.0, 0.0, 0.0, 0.0, 0.0, 0.0, 0.0, 0.0, 0.0, 0.0, 0.0, 0.0, 0.0, 0.0, 0.0, 0.0, 0.0, 0.0, 0.0, 0.0, 0.0, 0.0, 0.0, 0.0, 0.0, 0.0, 0.0, 0.0, 0.0, 0.0, 0.0, 0.0, 0.0, 0.0, 0.0, 0.0, 0.0, 0.0, 0.0, 0.0, 0.0, 0.0, 0.0, 0.0, 0.0, -0.04351851851851852, -0.14722222222222223, -0.29444444444444445]","[0.0, 0.0, 0.0, 0.0, 0.0, 0.0, 0.0, 0.0, 0.0, 0.0, 0.0, 0.0, 0.0, 0.0, 0.0, 0.0, 0.0, 0.0, 0.0, 0.0, 0.0, 0.0, 0.0, 0.0, 0.0, 0.0, 0.0, 0.0, 0.0, 0.0, 0.0, 0.0, 0.0, 0.0, 0.0, 0.0, 0.0, 0.0, 0.0, 0.0, 0.0, 0.0, 0.0, 0.0, 0.0, 0.0, 0.0, 0.0, 0.0, 0.0, 0.0, 0.0, 0.0, 0.0, -0.04259259259259259, -0.14814814814814814, -0.29907407407407405]","[0, 0, 0, 0, 0, 0, 0, 0, 0, 0, 0, 0, 0, 0, 0, 0, 0, 0, 0, 0, 0, 0, 0, 0, 0, 0, 0, 0, 0, 0, 0, 0, 0, 0, 0, 0, 0, 0, 0, 0, 0, 0, 0, 0, 0, 1, 1, 1, 1, 1, 1, 1, 1, 1, 1, 1, 1]","[0, 0, 0, 0, 0, 0, 0, 0, 0, 0, 0, 0, 0, 0, 0, 0, 0, 0, 0, 0, 0, 0, 0, 0, 0, 0, 0, 0, 0, 0, 0, 0, 0, 0, 0, 0, 0, 0, 0, 0, 0, 0, 0, 0, 0, 0, 0, 0, 0, 0, 0, 0, 0, 0, 0, 0, 0]","[0, 0, 0, 0, 0, 0, 0, 0, 0, 0, 0, 0, 0, 0, 0, 0, 0, 0, 0, 0, 0, 0, 0, 0, 0, 0, 0, 0, 0, 0, 0, 0, 0, 0, 0, 0, 0, 0, 0, 0, 0, 0, 0, 0, 0, 0, 0, 0, 0, 0, 0, 0, 0, 0, 0, 0, 0]","[0.0011998999980278313, 0.017695799993816763, 0.03496699998504482, 0.05127349999384023, 0.06755720000364818, 0.08414359999005683, 0.10184630000730976, 0.11835919998702593, 0.13494099999661557, 0.15131549999932759, 0.1678916999953799, 0.18392559999483638, 0.20077269998728298, 0.2177275999856647, 0.23410159998456948, 0.2512220999924466, 0.26742899999953806, 0.28499859999283217, 0.3006273999926634, 0.3178802999900654, 0.33375530000193976, 0.351356900006067, 0.3680220000096597, 0.38401449998491444, 0.4005033999856096, 0.41724640000029467, 0.43385030000354163, 0.45055449998471886, 0.4679591000021901, 0.4844569999841042, 0.5008045999857131, 0.5171687999973074, 0.5343193000007886, 0.5502990999957547, 0.5670782999950461, 0.5835006999841426, 0.6008372000069357, 0.6170332999899983, 0.6336501000041608, 0.650451499997871, 0.6669497000111733, 0.6837943999853451, 0.7005722000030801, 0.7168716999876779, 0.7341994000016712, 0.7524113999970723, 0.7666886000079103, 0.7830792999884579, 0.7996506000054069, 0.8163659000128973, 0.8328882000059821, 0.8500637999968603, 0.8662949999852572, 0.8830239000089932, 0.900188600004185, 0.9170674000051804, 0.933679999987362]",1.1196309699735139,None,47.75742339997669,None,47.75742339997669,None,47.75742339997669,None,47.75742339997669,48.26955209998414,47.75742339997669,None,0,001,2021_Mar_15_1018,vm_20xx,2020.2.4,60.04945673865205,
0.3,-0.3,0,,,,,,,,,0,3,3,11,,,,,,,,,,,,,,,,,,,,,,,,,,,,,,,,,,,,,,,48.754405499988934,None,48.754405499988934,None,50.20035709999502,None,48.754405499988934,None,"[0.0, 0.0, 0.0, 0.0, 0.0, 0.0, 0.0, 0.0, 0.0, 0.0, 0.0, 0.0, 0.0, 0.0, 0.0, 0.0, 0.0, 0.0, 0.0, 0.0, 0.0, 0.0, 0.0, 0.0, 0.0, 0.0, 0.0, 0.0, 0.0, 0.0, 0.0, 0.0, 0.0, 0.0, 0.040740740740740744, 0.11388888888888889, 0.175]","[0.0, 0.0, 0.0, 0.0, 0.0, 0.0, 0.0, 0.0, 0.0, 0.0, 0.0, 0.0, 0.0, 0.0, 0.0, 0.0, 0.0, 0.0, 0.0, 0.0, 0.0, 0.0, 0.0, 0.0, 0.0, 0.0, 0.0, 0.0, 0.0, 0.0, 0.0, 0.0, 0.0, 0.0, -0.0787037037037037, -0.1648148148148148, -0.2361111111111111]","[0, 0, 0, 0, 0, 0, 0, 0, 0, 0, 0, 0, 0, 0, 0, 0, 0, 0, 0, 0, 0, 0, 0, 0, 1, 1, 1, 1, 1, 1, 1, 1, 1, 1, 1, 1, 1]","[0, 0, 0, 0, 0, 0, 0, 0, 0, 0, 0, 0, 0, 0, 0, 0, 0, 0, 0, 0, 0, 0, 0, 0, 0, 0, 0, 0, 0, 0, 0, 0, 0, 0, 0, 0, 0]","[0, 0, 0, 0, 0, 0, 0, 0, 0, 0, 0, 0, 0, 0, 0, 0, 0, 0, 0, 0, 0, 0, 0, 0, 0, 0, 0, 0, 0, 0, 0, 0, 0, 0, 0, 0, 0]","[0.000895200006198138, 0.01788870000746101, 0.03413039998849854, 0.051711800013436005, 0.06745880001108162, 0.08441169999423437, 0.10184350001509301, 0.11850459998822771, 0.13483180000912398, 0.15070600001490675, 0.1674334999988787, 0.1840102999994997, 0.20079800000530668, 0.21735379999154247, 0.23460230001364835, 0.25067690000287257, 0.26735169999301434, 0.2846538000158034, 0.3006623999972362, 0.3173372999881394, 0.3344906000129413, 0.35053789999801666, 0.3679378000088036, 0.3843687000044156, 0.40204720001202077, 0.4173157000041101, 0.43405260000145063, 0.4498416999995243, 0.4672143000061624, 0.4831756000057794, 0.4998712000087835, 0.5165014000085648, 0.5332074000034481, 0.5505700999929104, 0.5670028000022285, 0.5844816000026185, 0.6010655999998562]",1.4692943699774332,None,50.82499899997492,None,50.82499899997492,None,50.82499899997492,None,50.82499899997492,51.332778799987864,50.82499899997492,None,0,001,2021_Mar_15_1018,vm_20xx,2020.2.4,60.04945673865205,
-0.3,0.3,0,,,,,,,,,0,4,4,9,,,,,,,,,,,,,,,,,,,,,,,,,,,,,,,,,,,,,,,51.83524129999569,None,51.83524129999569,None,53.01452159998007,None,51.83524129999569,None,"[0.0, 0.0, 0.0, 0.0, 0.0, 0.0, 0.0, 0.0, 0.0, 0.0, 0.0, 0.0, 0.0, 0.0, 0.0, 0.0, 0.0, 0.0, 0.0, 0.0, 0.0, 0.0, 0.0, 0.0, 0.0, 0.0, 0.0, 0.0, 0.0, 0.0, 0.0, 0.0, 0.0, 0.0, 0.0, 0.0, -0.017592592592592594, -0.14722222222222223, -0.23055555555555557]","[0.0, 0.0, 0.0, 0.0, 0.0, 0.0, 0.0, 0.0, 0.0, 0.0, 0.0, 0.0, 0.0, 0.0, 0.0, 0.0, 0.0, 0.0, 0.0, 0.0, 0.0, 0.0, 0.0, 0.0, 0.0, 0.0, 0.0, 0.0, 0.0, 0.0, 0.0, 0.0, 0.0, 0.0, 0.0, 0.0, 0.014814814814814815, 0.14629629629629629, 0.24351851851851852]","[0, 0, 0, 0, 0, 0, 0, 0, 0, 0, 0, 0, 0, 0, 0, 0, 0, 0, 0, 0, 0, 0, 0, 0, 0, 0, 0, 1, 1, 1, 1, 1, 1, 1, 1, 1, 1, 1, 1]","[0, 0, 0, 0, 0, 0, 0, 0, 0, 0, 0, 0, 0, 0, 0, 0, 0, 0, 0, 0, 0, 0, 0, 0, 0, 0, 0, 0, 0, 0, 0, 0, 0, 0, 0, 0, 0, 0, 0]","[0, 0, 0, 0, 0, 0, 0, 0, 0, 0, 0, 0, 0, 0, 0, 0, 0, 0, 0, 0, 0, 0, 0, 0, 0, 0, 0, 0, 0, 0, 0, 0, 0, 0, 0, 0, 0, 0, 0]","[0.0011417999921832234, 0.01769050001166761, 0.03466500001377426, 0.05093600001418963, 0.06773680000333115, 0.08410410000942647, 0.10059300001012161, 0.11719200000516139, 0.13410830000066198, 0.15056680000270717, 0.16730790000292473, 0.18431420001434162, 0.20112340000923723, 0.21714870000141673, 0.23405729999649338, 0.2508988000045065, 0.2679459000064526, 0.28371730001526885, 0.30064950001542456, 0.31695060001220554, 0.3338372000143863, 0.35062770001241006, 0.367534799996065, 0.3847406000131741, 0.4011668000021018, 0.4177129000017885, 0.43377289999625646, 0.4520233999937773, 0.4672716000059154, 0.48304960000677966, 0.4997524000064004, 0.5162359999958426, 0.5330208000086714, 0.5501909000158776, 0.5662030999956187, 0.5831291000067722, 0.6005875999981072, 0.6171069999982137, 0.6359654999978375]",1.2026509700226597,None,53.689484099973924,None,53.689484099973924,None,53.689484099973924,None,53.689484099973924,54.19712139997864,53.689484099973924,None,0,001,2021_Mar_15_1018,vm_20xx,2020.2.4,60.04945673865205,
-0.3,0.3,0,,,,,,,,,0,5,5,1,,,,,,,,,,,,,,,,,,,,,,,,,,,,,,,,,,,,,,,54.681184399989434,None,54.681184399989434,None,55.19597020000219,None,54.681184399989434,None,"[0.0, 0.0, 0.0, 0.0, 0.0, 0.0, 0.0, 0.0, 0.0, 0.0, 0.0, 0.0, 0.0, 0.0, 0.0, 0.0, 0.0, 0.0, 0.0, 0.0, 0.0, 0.0, 0.0, 0.0, 0.0, 0.0, 0.0, 0.0, 0.0, 0.0, 0.0, 0.0, 0.0, 0.0, 0.0, 0.0, 0.0, 0.0, 0.0, 0.0, 0.0, 0.0, 0.0, 0.0, 0.0, -0.012037037037037037, -0.03981481481481482, -0.062037037037037036, -0.1, -0.12037037037037036, -0.1361111111111111, -0.15462962962962962, -0.1685185185185185, -0.17962962962962964, -0.18796296296296297, -0.2037037037037037, -0.21203703703703702, -0.21944444444444444, -0.23055555555555557, -0.24074074074074073, -0.2490740740740741, -0.25462962962962965, -0.25925925925925924, -0.26296296296296295, -0.26481481481481484, -0.2675925925925926, -0.26851851851851855, -0.26944444444444443, -0.26944444444444443, -0.27037037037037037, -0.2712962962962963, -0.2722222222222222, -0.27314814814814814, -0.2759259259259259, -0.27870370370370373, -0.28425925925925927, -0.2898148148148148, -0.29444444444444445]","[0.0, 0.0, 0.0, 0.0, 0.0, 0.0, 0.0, 0.0, 0.0, 0.0, 0.0, 0.0, 0.0, 0.0, 0.0, 0.0, 0.0, 0.0, 0.0, 0.0, 0.0, 0.0, 0.0, 0.0, 0.0, 0.0, 0.0, 0.0, 0.0, 0.0, 0.0, 0.0, 0.0, 0.0, 0.0, 0.0, 0.0, 0.0, 0.0, 0.0, 0.0, 0.0, 0.0, 0.0, 0.0, 0.007407407407407408, 0.025925925925925925, 0.040740740740740744, 0.07314814814814814, 0.08611111111111111, 0.0962962962962963, 0.11574074074074074, 0.1287037037037037, 0.14074074074074075, 0.14907407407407408, 0.1638888888888889, 0.17592592592592593, 0.18703703703703703, 0.2, 0.21388888888888888, 0.21851851851851853, 0.225, 0.23148148148148148, 0.23703703703703705, 0.2388888888888889, 0.24166666666666667, 0.24259259259259258, 0.24351851851851852, 0.24537037037037038, 0.2462962962962963, 0.24814814814814815, 0.25092592592592594, 0.2518518518518518, 0.2537037037037037, 0.2564814814814815, 0.26296296296296295, 0.27037037037037037, 0.275]","[0, 0, 0, 0, 0, 0, 0, 0, 0, 0, 0, 0, 0, 0, 0, 0, 0, 0, 0, 0, 0, 0, 0, 0, 0, 0, 0, 0, 0, 0, 0, 1, 1, 1, 1, 1, 1, 1, 1, 1, 1, 1, 1, 1, 1, 1, 1, 1, 1, 1, 1, 1, 1, 1, 1, 1, 1, 1, 1, 1, 1, 1, 1, 1, 1, 1, 1, 1, 1, 1, 1, 1, 1, 1, 1, 1, 1, 1]","[0, 0, 0, 0, 0, 0, 0, 0, 0, 0, 0, 0, 0, 0, 0, 0, 0, 0, 0, 0, 0, 0, 0, 0, 0, 0, 0, 0, 0, 0, 0, 0, 0, 0, 0, 0, 0, 0, 0, 0, 0, 0, 0, 0, 0, 0, 0, 0, 0, 0, 0, 0, 0, 0, 0, 0, 0, 0, 0, 0, 0, 0, 0, 0, 0, 0, 0, 0, 0, 0, 0, 0, 0, 0, 0, 0, 0, 0]","[0, 0, 0, 0, 0, 0, 0, 0, 0, 0, 0, 0, 0, 0, 0, 0, 0, 0, 0, 0, 0, 0, 0, 0, 0, 0, 0, 0, 0, 0, 0, 0, 0, 0, 0, 0, 0, 0, 0, 0, 0, 0, 0, 0, 0, 0, 0, 0, 0, 0, 0, 0, 0, 0, 0, 0, 0, 0, 0, 0, 0, 0, 0, 0, 0, 0, 0, 0, 0, 0, 0, 0, 0, 0, 0, 0, 0, 0]","[0.0009062000026460737, 0.0172016000142321, 0.03396709999651648, 0.05058079998707399, 0.0673160000005737, 0.08418130001518875, 0.10084510000888258, 0.11800580000272021, 0.13450230000307783, 0.15104600001359358, 0.1669703999941703, 0.18431660000351258, 0.20069749999674968, 0.21790170000167564, 0.23368480001227, 0.2510333000100218, 0.2670611999928951, 0.2837706000136677, 0.3010473999893293, 0.31694160000188276, 0.3338260999880731, 0.35104609999689274, 0.36700070000370033, 0.38392120000207797, 0.4010728000139352, 0.4168425000098068, 0.43364249999285676, 0.45153799999388866, 0.467614399996819, 0.48355490001267754, 0.5004214000073262, 0.5182810999976937, 0.533437000005506, 0.5498988000035752, 0.5663701000157744, 0.5829265000065789, 0.6003081999951974, 0.6162990000157151, 0.6330814000102691, 0.6495707000140101, 0.6667547000106424, 0.6826714999915566, 0.7018004000128713, 0.7176044000079855, 0.7330215999973007, 0.7509407000034116, 0.7662957000138704, 0.78316459999769, 0.7999624999938533, 0.8164918000111356, 0.8333176999876741, 0.8504881999979261, 0.8683247999870218, 0.8837330999958795, 0.9006206000049133, 0.9170177000050899, 0.9336312999948859, 0.950181899999734, 0.9664914000022691, 0.9829652000044007, 1.0008278999885079, 1.0165273000020534, 1.0330108999914955, 1.0498558999970555, 1.0665802000148688, 1.0829159000131767, 1.098935399990296, 1.1163539999979548, 1.1335784000111744, 1.1499056000029668, 1.1664325000019744, 1.1830084999965038, 1.1995934000005946, 1.2168512000062037, 1.2330763000063598, 1.2494143999938387, 1.2663157999922987, 1.2832636999955866]",0.5376599699957296,None,56.50457129999995,None,56.50457129999995,None,56.50457129999995,None,56.50457129999995,57.01093329998548,56.50457129999995,None,0,001,2021_Mar_15_1018,vm_20xx,2020.2.4,60.04945673865205,
0.3,0.3,0,,,,,,,,,0,6,6,0,,,,,,,,,,,,,,,,,,,,,,,,,,,,,,,,,,,,,,,57.51301489997422,None,57.51301489997422,None,58.4094995999767,None,57.51301489997422,None,"[0.0, 0.0, 0.0, 0.0, 0.0, 0.0, 0.0, 0.0, 0.0, 0.0, 0.0, 0.0, 0.0, 0.0, 0.0, 0.0, 0.0, 0.0, 0.0, 0.0, 0.0, 0.0, 0.0, 0.0, 0.0, 0.0, 0.0, 0.0, 0.0, 0.0, 0.0, 0.0, 0.0, 0.0, 0.0, 0.0, 0.0, 0.0, 0.0, 0.0, 0.0, 0.0, 0.0, 0.001851851851851852, 0.011111111111111112, 0.022222222222222223, 0.026851851851851852, 0.03333333333333333, 0.03981481481481482, 0.05092592592592592, 0.05648148148148148, 0.06296296296296296, 0.06944444444444445, 0.07777777777777778, 0.08425925925925926, 0.09074074074074075, 0.09722222222222222, 0.11203703703703703, 0.12407407407407407, 0.13518518518518519, 0.1425925925925926, 0.1527777777777778, 0.16111111111111112, 0.16944444444444445, 0.1824074074074074, 0.18888888888888888, 0.19722222222222222, 0.20277777777777778, 0.20925925925925926, 0.21574074074074073, 0.2212962962962963, 0.22685185185185186, 0.2324074074074074, 0.23796296296296296, 0.24166666666666667, 0.24814814814814815, 0.25092592592592594, 0.25462962962962965, 0.2574074074074074, 0.2601851851851852, 0.2657407407407407, 0.26851851851851855, 0.2722222222222222, 0.28055555555555556, 0.2861111111111111, 0.2898148148148148, 0.29444444444444445, 0.2972222222222222, 0.30092592592592593, 0.3037037037037037, 0.3055555555555556, 0.3074074074074074]","[0.0, 0.0, 0.0, 0.0, 0.0, 0.0, 0.0, 0.0, 0.0, 0.0, 0.0, 0.0, 0.0, 0.0, 0.0, 0.0, 0.0, 0.0, 0.0, 0.0, 0.0, 0.0, 0.0, 0.0, 0.0, 0.0, 0.0, 0.0, 0.0, 0.0, 0.0, 0.0, 0.0, 0.0, 0.0, 0.0, 0.0, 0.0, 0.0, 0.0, 0.0, 0.0, 0.0, 0.002777777777777778, 0.008333333333333333, 0.01574074074074074, 0.020370370370370372, 0.025925925925925925, 0.02962962962962963, 0.037037037037037035, 0.041666666666666664, 0.046296296296296294, 0.05092592592592592, 0.058333333333333334, 0.062037037037037036, 0.07037037037037037, 0.07407407407407407, 0.08703703703703704, 0.09537037037037037, 0.10648148148148148, 0.11574074074074074, 0.12777777777777777, 0.13333333333333333, 0.14166666666666666, 0.15185185185185185, 0.15833333333333333, 0.16666666666666666, 0.17407407407407408, 0.1824074074074074, 0.18796296296296297, 0.1935185185185185, 0.19814814814814816, 0.2037037037037037, 0.2074074074074074, 0.2101851851851852, 0.21296296296296297, 0.2175925925925926, 0.21944444444444444, 0.2222222222222222, 0.22685185185185186, 0.23148148148148148, 0.23425925925925925, 0.23981481481481481, 0.24444444444444444, 0.25, 0.25277777777777777, 0.2564814814814815, 0.25925925925925924, 0.26296296296296295, 0.26666666666666666, 0.26851851851851855, 0.27037037037037037]","[0, 0, 0, 0, 0, 0, 0, 0, 0, 0, 0, 0, 0, 0, 0, 0, 0, 0, 0, 0, 0, 0, 0, 0, 0, 0, 0, 0, 0, 1, 1, 1, 1, 1, 1, 1, 1, 1, 1, 1, 1, 1, 1, 1, 1, 1, 1, 1, 1, 1, 1, 1, 1, 1, 1, 1, 1, 1, 1, 1, 1, 1, 1, 1, 1, 1, 1, 1, 1, 1, 1, 1, 1, 1, 1, 1, 1, 1, 1, 1, 1, 1, 1, 1, 1, 1, 1, 1, 1, 1, 1, 1]","[0, 0, 0, 0, 0, 0, 0, 0, 0, 0, 0, 0, 0, 0, 0, 0, 0, 0, 0, 0, 0, 0, 0, 0, 0, 0, 0, 0, 0, 0, 0, 0, 0, 0, 0, 0, 0, 0, 0, 0, 0, 0, 0, 0, 0, 0, 0, 0, 0, 0, 0, 0, 0, 0, 0, 0, 0, 0, 0, 0, 0, 0, 0, 0, 0, 0, 0, 0, 0, 0, 0, 0, 0, 0, 0, 0, 0, 0, 0, 0, 0, 0, 0, 0, 0, 0, 0, 0, 0, 0, 0, 0]","[0, 0, 0, 0, 0, 0, 0, 0, 0, 0, 0, 0, 0, 0, 0, 0, 0, 0, 0, 0, 0, 0, 0, 0, 0, 0, 0, 0, 0, 0, 0, 0, 0, 0, 0, 0, 0, 0, 0, 0, 0, 0, 0, 0, 0, 0, 0, 0, 0, 0, 0, 0, 0, 0, 0, 0, 0, 0, 0, 0, 0, 0, 0, 0, 0, 0, 0, 0, 0, 0, 0, 0, 0, 0, 0, 0, 0, 0, 0, 0, 0, 0, 0, 0, 0, 0, 0, 0, 0, 0, 0, 0]","[0.0008931999909691513, 0.01745469999150373, 0.03405019998899661, 0.051393300003837794, 0.06752889999188483, 0.08490419998997822, 0.10058830000343733, 0.11747500000637956, 0.1345588999975007, 0.15093569998862222, 0.16747879999456927, 0.1843081999977585, 0.2004181999946013, 0.21710750000784174, 0.2341145999962464, 0.25038780001341365, 0.2671995999990031, 0.2845269000099506, 0.3013832000142429, 0.31708869998692535, 0.334024000010686, 0.3507353999884799, 0.36719290001201443, 0.38455570000223815, 0.4004711000015959, 0.4176340000121854, 0.43424179998692125, 0.45126790000358596, 0.4668342999939341, 0.4852471000049263, 0.49998319998849183, 0.5166529999987688, 0.5329940000083297, 0.5497627999866381, 0.5670166999916546, 0.5829096999950707, 0.5997216000105254, 0.6162904000084382, 0.633131400012644, 0.6495985999936238, 0.6664592000015546, 0.682700700010173, 0.6994387999875471, 0.7168871999892872, 0.7336203999875579, 0.7504177000082564, 0.7665206000092439, 0.7833628999942448, 0.8009558999910951, 0.8165929999959189, 0.8346473000128753, 0.8498161000024993, 0.8666563000006136, 0.8830649000010453, 0.9007428000040818, 0.9165395000018179, 0.9335619999910705, 0.949765400000615, 0.9676702000142541, 0.9830642000015359, 1.000761400006013, 1.016398100007791, 1.033990600000834, 1.0499712000018917, 1.067080700013321, 1.0836284999968484, 1.0997208000044338, 1.117142100003548, 1.1328336000151467, 1.1510124999913387, 1.1675747999979649, 1.1833602999977302, 1.1999511999893002, 1.217430399992736, 1.2339391999994405, 1.2500731000036467, 1.266950999997789, 1.2836647999938577, 1.3000572999881115, 1.3161887000023853, 1.3329335000016727, 1.3508091999974567, 1.3666923000128008, 1.3836750999907963, 1.3993744000035804, 1.4171954999910668, 1.4330923999950755, 1.449550499994075, 1.4656905999872833, 1.4826866000075825, 1.4999846999999136, 1.5162227000109851]",0.9199813699815422,None,59.96473719997448,None,59.96473719997448,None,59.96473719997448,None,59.96473719997448,60.474045199982356,59.96473719997448,None,0,001,2021_Mar_15_1018,vm_20xx,2020.2.4,60.04945673865205,
-0.3,-0.3,0,,,,,,,,,0,7,7,2,,,,,,,,,,,,,,,,,,,,,,,,,,,,,,,,,,,,,,,60.95962809998309,None,60.95962809998309,None,62.155914099974325,None,60.95962809998309,None,"[0.0, 0.0, 0.0, 0.0, 0.0, 0.0, 0.0, 0.0, 0.0, 0.0, 0.0, 0.0, 0.0, 0.0, 0.0, 0.0, 0.0, 0.0, 0.0, 0.0, 0.0, 0.0, 0.0, 0.0, 0.0, 0.0, 0.0, 0.0, 0.0, 0.0, 0.0, 0.0, 0.0, 0.0, 0.0, 0.0, 0.0, 0.0, 0.0, 0.0, 0.0, 0.0, 0.0, 0.0, 0.0, 0.0, 0.0, 0.0, 0.0, 0.0, 0.0, 0.0, 0.0, 0.0, 0.0, 0.0, 0.0, 0.0, 0.0, 0.0, 0.0, 0.0, 0.0, 0.0, 0.0, 0.0, 0.0, 0.0, 0.0, 0.0, 0.0, 0.0, 0.0, 0.0, 0.0, 0.0, 0.0, 0.0, 0.0, 0.0, 0.0, 0.0, 0.0, 0.0, 0.0, 0.0, 0.0, 0.0, 0.0, 0.0, 0.0, 0.0, 0.0, 0.0, 0.0, 0.0, 0.0, 0.0, 0.0, 0.0, 0.0, 0.0, 0.0, 0.0, 0.0, 0.0, 0.0, 0.0, 0.0, 0.0, 0.0, 0.0, 0.0, 0.0, 0.0, 0.0, 0.0, 0.0, 0.0, 0.0, 0.0, 0.0, 0.0, 0.0, 0.0, 0.0, 0.0, 0.0, 0.0, 0.0, 0.0, 0.0, 0.0, 0.0, 0.0, 0.0, 0.0, 0.0, 0.0, 0.0, 0.0, 0.0, 0.0, 0.0, 0.0, 0.0, 0.0, 0.0, 0.0, 0.0, 0.0, 0.0, 0.0, 0.0, 0.0, 0.0, 0.0, 0.0, 0.0, 0.0, 0.0, 0.0, 0.0, 0.0, 0.0, 0.0, 0.0, 0.0, -0.010185185185185186, -0.016666666666666666, -0.028703703703703703, -0.04259259259259259, -0.058333333333333334, -0.06666666666666667, -0.07314814814814814, -0.07777777777777778, -0.08333333333333333, -0.08611111111111111, -0.08981481481481482, -0.09537037037037037, -0.09814814814814815, -0.09907407407407408, -0.10185185185185185, -0.10555555555555556, -0.10740740740740741, -0.11018518518518519, -0.11203703703703703, -0.11481481481481481, -0.11666666666666667, -0.12037037037037036, -0.12222222222222222, -0.12407407407407407, -0.12777777777777777, -0.13148148148148148, -0.1361111111111111, -0.14351851851851852, -0.15092592592592594, -0.15833333333333333, -0.1648148148148148, -0.1712962962962963, -0.175, -0.1787037037037037, -0.18425925925925926, -0.18981481481481483, -0.1935185185185185, -0.19907407407407407, -0.20555555555555555, -0.2111111111111111, -0.21481481481481482, -0.21851851851851853, -0.2212962962962963, -0.22407407407407406, -0.22685185185185186, -0.22962962962962963, -0.2361111111111111, -0.24074074074074073, -0.24259259259259258, -0.24814814814814815, -0.25092592592592594, -0.25462962962962965, -0.2564814814814815, -0.25925925925925924, -0.262037037037037, -0.2638888888888889, -0.26481481481481484, -0.2675925925925926, -0.27037037037037037, -0.2712962962962963, -0.27314814814814814, -0.2759259259259259, -0.27870370370370373, -0.2796296296296296, -0.2814814814814815, -0.28703703703703703, -0.2898148148148148, -0.2916666666666667, -0.2972222222222222, -0.30092592592592593, -0.30277777777777776, -0.30648148148148147, -0.3101851851851852, -0.3111111111111111, -0.3138888888888889, -0.31574074074074077, -0.3175925925925926, -0.3212962962962963]","[0.0, 0.0, 0.0, 0.0, 0.0, 0.0, 0.0, 0.0, 0.0, 0.0, 0.0, 0.0, 0.0, 0.0, 0.0, 0.0, 0.0, 0.0, 0.0, 0.0, 0.0, 0.0, 0.0, 0.0, 0.0, 0.0, 0.0, 0.0, 0.0, 0.0, 0.0, 0.0, 0.0, 0.0, 0.0, 0.0, 0.0, 0.0, 0.0, 0.0, 0.0, 0.0, 0.0, 0.0, 0.0, 0.0, 0.0, 0.0, 0.0, 0.0, 0.0, 0.0, 0.0, 0.0, 0.0, 0.0, 0.0, 0.0, 0.0, 0.0, 0.0, 0.0, 0.0, 0.0, 0.0, 0.0, 0.0, 0.0, 0.0, 0.0, 0.0, 0.0, 0.0, 0.0, 0.0, 0.0, 0.0, 0.0, 0.0, 0.0, 0.0, 0.0, 0.0, 0.0, 0.0, 0.0, 0.0, 0.0, 0.0, 0.0, 0.0, 0.0, 0.0, 0.0, 0.0, 0.0, 0.0, 0.0, 0.0, 0.0, 0.0, 0.0, 0.0, 0.0, 0.0, 0.0, 0.0, 0.0, 0.0, 0.0, 0.0, 0.0, 0.0, 0.0, 0.0, 0.0, 0.0, 0.0, 0.0, 0.0, 0.0, 0.0, 0.0, 0.0, 0.0, 0.0, 0.0, 0.0, 0.0, 0.0, 0.0, 0.0, 0.0, 0.0, 0.0, 0.0, 0.0, 0.0, 0.0, 0.0, 0.0, 0.0, 0.0, 0.0, 0.0, 0.0, 0.0, 0.0, 0.0, 0.0, 0.0, 0.0, 0.0, 0.0, 0.0, 0.0, 0.0, 0.0, 0.0, 0.0, 0.0, 0.0, 0.0, 0.0, 0.0, 0.0, 0.0, 0.0, -0.011111111111111112, -0.017592592592592594, -0.02962962962962963, -0.041666666666666664, -0.05462962962962963, -0.06296296296296296, -0.06666666666666667, -0.07222222222222222, -0.07592592592592592, -0.0787037037037037, -0.0824074074074074, -0.08703703703703704, -0.08888888888888889, -0.09166666666666666, -0.09351851851851851, -0.0962962962962963, -0.09814814814814815, -0.10092592592592593, -0.10277777777777777, -0.10555555555555556, -0.10833333333333334, -0.1111111111111111, -0.11296296296296296, -0.11481481481481481, -0.1175925925925926, -0.12037037037037036, -0.12314814814814815, -0.1287037037037037, -0.13148148148148148, -0.13518518518518519, -0.13796296296296295, -0.14074074074074075, -0.1425925925925926, -0.14444444444444443, -0.14814814814814814, -0.15092592592592594, -0.15462962962962962, -0.15925925925925927, -0.16296296296296298, -0.16666666666666666, -0.16944444444444445, -0.1712962962962963, -0.17314814814814813, -0.175, -0.17777777777777778, -0.17962962962962964, -0.18333333333333332, -0.18888888888888888, -0.19074074074074074, -0.19537037037037036, -0.19722222222222222, -0.2, -0.20185185185185187, -0.20555555555555555, -0.2064814814814815, -0.20833333333333334, -0.2101851851851852, -0.21296296296296297, -0.21481481481481482, -0.21666666666666667, -0.21851851851851853, -0.2212962962962963, -0.22314814814814815, -0.225, -0.22592592592592592, -0.22870370370370371, -0.23148148148148148, -0.23333333333333334, -0.2361111111111111, -0.23796296296296296, -0.24074074074074073, -0.24259259259259258, -0.24444444444444444, -0.2462962962962963, -0.2490740740740741, -0.25092592592592594, -0.2518518518518518, -0.2537037037037037]","[0, 0, 0, 0, 0, 0, 0, 0, 0, 0, 0, 0, 0, 0, 0, 0, 0, 0, 0, 0, 0, 0, 0, 0, 0, 0, 0, 0, 0, 0, 0, 0, 0, 0, 0, 0, 0, 0, 0, 0, 0, 0, 0, 0, 0, 0, 0, 0, 0, 0, 0, 0, 0, 0, 0, 0, 0, 0, 0, 0, 0, 0, 0, 0, 0, 0, 0, 0, 0, 0, 0, 0, 0, 0, 0, 0, 0, 0, 0, 0, 0, 0, 0, 0, 0, 0, 0, 0, 0, 0, 0, 0, 0, 0, 0, 0, 0, 0, 0, 0, 0, 0, 0, 0, 0, 0, 0, 0, 0, 0, 0, 0, 0, 0, 0, 0, 0, 0, 0, 0, 0, 0, 0, 0, 0, 0, 0, 0, 0, 0, 0, 0, 0, 0, 0, 0, 0, 0, 0, 0, 0, 0, 0, 0, 0, 0, 0, 0, 0, 0, 0, 1, 1, 1, 1, 1, 1, 1, 1, 1, 1, 1, 1, 1, 1, 1, 1, 1, 1, 1, 1, 1, 1, 1, 1, 1, 1, 1, 1, 1, 1, 1, 1, 1, 1, 1, 1, 1, 1, 1, 1, 1, 1, 1, 1, 1, 1, 1, 1, 1, 1, 1, 1, 1, 1, 1, 1, 1, 1, 1, 1, 1, 1, 1, 1, 1, 1, 1, 1, 1, 1, 1, 1, 1, 1, 1, 1, 1, 1, 1, 1, 1, 1, 1, 1, 1, 1, 1, 1, 1, 1, 1, 1, 1, 1, 1]","[0, 0, 0, 0, 0, 0, 0, 0, 0, 0, 0, 0, 0, 0, 0, 0, 0, 0, 0, 0, 0, 0, 0, 0, 0, 0, 0, 0, 0, 0, 0, 0, 0, 0, 0, 0, 0, 0, 0, 0, 0, 0, 0, 0, 0, 0, 0, 0, 0, 0, 0, 0, 0, 0, 0, 0, 0, 0, 0, 0, 0, 0, 0, 0, 0, 0, 0, 0, 0, 0, 0, 0, 0, 0, 0, 0, 0, 0, 0, 0, 0, 0, 0, 0, 0, 0, 0, 0, 0, 0, 0, 0, 0, 0, 0, 0, 0, 0, 0, 0, 0, 0, 0, 0, 0, 0, 0, 0, 0, 0, 0, 0, 0, 0, 0, 0, 0, 0, 0, 0, 0, 0, 0, 0, 0, 0, 0, 0, 0, 0, 0, 0, 0, 0, 0, 0, 0, 0, 0, 0, 0, 0, 0, 0, 0, 0, 0, 0, 0, 0, 0, 0, 0, 0, 0, 0, 0, 0, 0, 0, 0, 0, 0, 0, 0, 0, 0, 0, 0, 0, 0, 0, 0, 0, 0, 0, 0, 0, 0, 0, 0, 0, 0, 0, 0, 0, 0, 0, 0, 0, 0, 0, 0, 0, 0, 0, 0, 0, 0, 0, 0, 0, 0, 0, 0, 0, 0, 0, 0, 0, 0, 0, 0, 0, 0, 0, 0, 0, 0, 0, 0, 0, 0, 0, 0, 0, 0, 0, 0, 0, 0, 0, 0, 0, 0, 0, 0, 0, 0, 0, 0, 0, 0, 0, 0, 0]","[0, 0, 0, 0, 0, 0, 0, 0, 0, 0, 0, 0, 0, 0, 0, 0, 0, 0, 0, 0, 0, 0, 0, 0, 0, 0, 0, 0, 0, 0, 0, 0, 0, 0, 0, 0, 0, 0, 0, 0, 0, 0, 0, 0, 0, 0, 0, 0, 0, 0, 0, 0, 0, 0, 0, 0, 0, 0, 0, 0, 0, 0, 0, 0, 0, 0, 0, 0, 0, 0, 0, 0, 0, 0, 0, 0, 0, 0, 0, 0, 0, 0, 0, 0, 0, 0, 0, 0, 0, 0, 0, 0, 0, 0, 0, 0, 0, 0, 0, 0, 0, 0, 0, 0, 0, 0, 0, 0, 0, 0, 0, 0, 0, 0, 0, 0, 0, 0, 0, 0, 0, 0, 0, 0, 0, 0, 0, 0, 0, 0, 0, 0, 0, 0, 0, 0, 0, 0, 0, 0, 0, 0, 0, 0, 0, 0, 0, 0, 0, 0, 0, 0, 0, 0, 0, 0, 0, 0, 0, 0, 0, 0, 0, 0, 0, 0, 0, 0, 0, 0, 0, 0, 0, 0, 0, 0, 0, 0, 0, 0, 0, 0, 0, 0, 0, 0, 0, 0, 0, 0, 0, 0, 0, 0, 0, 0, 0, 0, 0, 0, 0, 0, 0, 0, 0, 0, 0, 0, 0, 0, 0, 0, 0, 0, 0, 0, 0, 0, 0, 0, 0, 0, 0, 0, 0, 0, 0, 0, 0, 0, 0, 0, 0, 0, 0, 0, 0, 0, 0, 0, 0, 0, 0, 0, 0, 0]","[0.0008715000003576279, 0.01754679999430664, 0.034945699997479096, 0.05112449999433011, 0.06766169998445548, 0.08399949999875389, 0.10069870000006631, 0.11804519998258911, 0.13397860000259243, 0.15136160000110976, 0.16788339999038726, 0.18407940000179224, 0.20053989998996258, 0.21748339998885058, 0.23383720000856556, 0.2513371999957599, 0.26800149999326095, 0.28382260000216775, 0.3009480999899097, 0.3172240999992937, 0.33404990000417456, 0.35035799999604933, 0.3671382000029553, 0.38370139998733066, 0.4011590000009164, 0.41789670000434853, 0.4337750999839045, 0.45105569998850115, 0.46733709998079576, 0.4842435999889858, 0.5000859999854583, 0.517547099996591, 0.5335648999898694, 0.5511959999857936, 0.5669946999987587, 0.5835553999932017, 0.600214899983257, 0.6171391999814659, 0.6335489999910351, 0.6502443999925163, 0.6671823000069708, 0.6833744999894407, 0.7003286999824923, 0.7166412000078708, 0.734196699981112, 0.7501314999826718, 0.7667784999939613, 0.7840780999977142, 0.8000274999940302, 0.816536600003019, 0.8332923999987543, 0.8498802999965847, 0.8666138999979012, 0.8834447999834083, 0.9001056999841239, 0.9175085999886505, 0.933531699993182, 0.9498754999949597, 0.9664951000013389, 0.9835329999914393, 1.0015376999799628, 1.0185327999934088, 1.033471999980975, 1.0496461000002455, 1.066483500006143, 1.0839052999799605, 1.1003712999809068, 1.1171933999867178, 1.1330752999929246, 1.149911999993492, 1.1668997000087984, 1.1834196999843698, 1.1996220999862999, 1.2162827999854926, 1.232932199985953, 1.2502490000042599, 1.2662471999938134, 1.2829750999808311, 1.2993667999980971, 1.316191499994602, 1.333520199987106, 1.3494559999962803, 1.3665195000066888, 1.383364499983145, 1.399534299998777, 1.416400899994187, 1.4328009999881033, 1.4501158999919426, 1.466122899990296, 1.4830912000034004, 1.4996860999963246, 1.516213399998378, 1.532548199989833, 1.5493643000081647, 1.5660486999840941, 1.5825257999822497, 1.6001185000059195, 1.6158597999892663, 1.6327005999919493, 1.6500460999959614, 1.6665995999937877, 1.6830427999957465, 1.699643100000685, 1.715866399987135, 1.7325197999889497, 1.7492146999866236, 1.7656358999956865, 1.7824895000085235, 1.799258999992162, 1.8156142999941949, 1.832333700003801, 1.8490004999912344, 1.8655616999894846, 1.8824061999912374, 1.8988498999970034, 1.9165598999825306, 1.9328689999820199, 1.949087299988605, 1.9658201999845915, 1.9822295999911148, 1.998832899989793, 2.015719499991974, 2.032121800002642, 2.0487085999920964, 2.0654554000066128, 2.082162100006826, 2.098675099987304, 2.1153244999877643, 2.1322327999805566, 2.1486112999846227, 2.16609129999415, 2.1826782999851275, 2.1989248000027146, 2.2156856000074185, 2.2324167999904603, 2.2485289000032935, 2.2653183999937028, 2.281863699987298, 2.298683800006984, 2.315314799983753, 2.3324997999879997, 2.3495830000028946, 2.366086299996823, 2.3820486000040546, 2.4003333000000566, 2.415895299986005, 2.4332789999898523, 2.448863400000846, 2.4656612999970093, 2.4838094000006095, 2.4989686000044458, 2.516641099995468, 2.5318133999826387, 2.547751000005519, 2.564416799985338, 2.5809159000054933, 2.597854699997697, 2.614368699985789, 2.6309560000081547, 2.6476096999831498, 2.6647944999858737, 2.6822392999893054, 2.697981899982551, 2.714852899982361, 2.7312054999929387, 2.7476652000041213, 2.764419299986912, 2.781362599984277, 2.798335600004066, 2.8160033999884035, 2.8316616999800317, 2.848323599988362, 2.8652671999880113, 2.8827147999836598, 2.8982189999951515, 2.9154449999914505, 2.9332662999804597, 2.9489900000044145, 2.9660577999893576, 2.981632399983937, 2.997927799995523, 3.0143716000020504, 3.0320845999813173, 3.0479731999803334, 3.065793699992355, 3.0813960999948904, 3.099073399993358, 3.115156299987575, 3.1322294999845326, 3.1482208999805152, 3.1653242000029422, 3.1825392000027932, 3.1984337999892887, 3.214744700002484, 3.2318263000051957, 3.247532199980924, 3.2646272999991197, 3.280967300001066, 3.2986995999817736, 3.3144098999910057, 3.3315233000030275, 3.348238599981414, 3.3644830999837723, 3.3812114000029396, 3.397683999995934, 3.4150981999991927, 3.432022099994356, 3.4489722999860533, 3.4641826000006404, 3.48100830000476, 3.4991736999945715, 3.515310499991756, 3.531331499980297, 3.5482670000055805, 3.5644084000086877, 3.5825296999828424, 3.598438199987868, 3.614758499985328, 3.632725200004643, 3.648042599990731, 3.6652984999818727, 3.6809263000031933, 3.69832920000772, 3.7142297999816947, 3.731209499994293, 3.7479365000035614, 3.765516599989496, 3.7807288999902084, 3.79741179998382, 3.8145779999904335, 3.831393200001912, 3.8474054999824148, 3.863805600005435, 3.8804756999888923, 3.897563499980606, 3.9143642999988515, 3.931119499990018, 3.9476390999916475, 3.9647226000088267, 3.98136639999575, 3.9981286999827716, 4.013729800004512, 4.030414999986533, 4.047399200004293, 4.063386699999683, 4.081554500007769]",1.2191681700351182,None,66.28097120000166,None,66.28097120000166,None,66.28097120000166,None,66.28097120000166,66.78542589998688,66.28097120000166,None,0,001,2021_Mar_15_1018,vm_20xx,2020.2.4,60.04945673865205,
-0.3,0.3,0,,,,,,,,,0,8,8,13,,,,,,,,,,,,,,,,,,,,,,,,,,,,,,,,,,,,,,,67.28699239998241,None,67.28699239998241,None,68.51669969997602,None,67.28699239998241,None,"[0.0, 0.0, 0.0, 0.0, 0.0, 0.0, 0.0, 0.0, 0.0, 0.0, 0.0, 0.0, 0.0, 0.0, 0.0, 0.0, 0.0, 0.0, 0.0, 0.0, 0.0, 0.0, 0.0, 0.0, 0.0, 0.0, 0.0, 0.0, 0.0, 0.0, 0.0, 0.0, 0.0, 0.0, 0.0, 0.0, 0.0, 0.0, 0.0, 0.0, 0.0, 0.0, 0.0, 0.0, 0.0, 0.0, 0.0, 0.0, 0.0, 0.0, 0.0, 0.0, 0.0, 0.0, 0.0, 0.0, 0.0, 0.0, 0.0, 0.0, 0.0, 0.0, 0.0, 0.0, 0.0, 0.0, 0.0, 0.0, 0.0, -0.013888888888888888, -0.02962962962962963, -0.04814814814814815, -0.0787037037037037, -0.09351851851851851, -0.10555555555555556, -0.1175925925925926, -0.1388888888888889, -0.15092592592592594, -0.15925925925925927, -0.1675925925925926, -0.17962962962962964, -0.18888888888888888, -0.19722222222222222, -0.20555555555555555, -0.2111111111111111, -0.21666666666666667, -0.2222222222222222, -0.22870370370370371, -0.23703703703703705, -0.23981481481481481, -0.24166666666666667, -0.24351851851851852, -0.24722222222222223, -0.2490740740740741, -0.25277777777777777, -0.2601851851851852, -0.26481481481481484, -0.2712962962962963]","[0.0, 0.0, 0.0, 0.0, 0.0, 0.0, 0.0, 0.0, 0.0, 0.0, 0.0, 0.0, 0.0, 0.0, 0.0, 0.0, 0.0, 0.0, 0.0, 0.0, 0.0, 0.0, 0.0, 0.0, 0.0, 0.0, 0.0, 0.0, 0.0, 0.0, 0.0, 0.0, 0.0, 0.0, 0.0, 0.0, 0.0, 0.0, 0.0, 0.0, 0.0, 0.0, 0.0, 0.0, 0.0, 0.0, 0.0, 0.0, 0.0, 0.0, 0.0, 0.0, 0.0, 0.0, 0.0, 0.0, 0.0, 0.0, 0.0, 0.0, 0.0, 0.0, 0.0, 0.0, 0.0, 0.0, 0.0, 0.0, 0.0, 0.010185185185185186, 0.024074074074074074, 0.044444444444444446, 0.07592592592592592, 0.08796296296296297, 0.1, 0.11018518518518519, 0.12962962962962962, 0.1388888888888889, 0.14722222222222223, 0.15555555555555556, 0.16944444444444445, 0.18333333333333332, 0.19444444444444445, 0.20555555555555555, 0.21666666666666667, 0.22037037037037038, 0.22870370370370371, 0.2351851851851852, 0.24722222222222223, 0.2537037037037037, 0.2574074074074074, 0.262037037037037, 0.26666666666666666, 0.2712962962962963, 0.275, 0.2833333333333333, 0.29074074074074074, 0.2972222222222222]","[0, 0, 0, 0, 0, 0, 0, 0, 0, 0, 0, 0, 0, 0, 0, 0, 0, 0, 0, 0, 0, 0, 0, 0, 0, 0, 0, 0, 0, 0, 0, 0, 0, 0, 0, 0, 0, 0, 0, 0, 0, 0, 0, 0, 0, 0, 0, 0, 0, 1, 1, 1, 1, 1, 1, 1, 1, 1, 1, 1, 1, 1, 1, 1, 1, 1, 1, 1, 1, 1, 1, 1, 1, 1, 1, 1, 1, 1, 1, 1, 1, 1, 1, 1, 1, 1, 1, 1, 1, 1, 1, 1, 1, 1, 1, 1, 1, 1]","[0, 0, 0, 0, 0, 0, 0, 0, 0, 0, 0, 0, 0, 0, 0, 0, 0, 0, 0, 0, 0, 0, 0, 0, 0, 0, 0, 0, 0, 0, 0, 0, 0, 0, 0, 0, 0, 0, 0, 0, 0, 0, 0, 0, 0, 0, 0, 0, 0, 0, 0, 0, 0, 0, 0, 0, 0, 0, 0, 0, 0, 0, 0, 0, 0, 0, 0, 0, 0, 0, 0, 0, 0, 0, 0, 0, 0, 0, 0, 0, 0, 0, 0, 0, 0, 0, 0, 0, 0, 0, 0, 0, 0, 0, 0, 0, 0, 0]","[0, 0, 0, 0, 0, 0, 0, 0, 0, 0, 0, 0, 0, 0, 0, 0, 0, 0, 0, 0, 0, 0, 0, 0, 0, 0, 0, 0, 0, 0, 0, 0, 0, 0, 0, 0, 0, 0, 0, 0, 0, 0, 0, 0, 0, 0, 0, 0, 0, 0, 0, 0, 0, 0, 0, 0, 0, 0, 0, 0, 0, 0, 0, 0, 0, 0, 0, 0, 0, 0, 0, 0, 0, 0, 0, 0, 0, 0, 0, 0, 0, 0, 0, 0, 0, 0, 0, 0, 0, 0, 0, 0, 0, 0, 0, 0, 0, 0]","[0.0008587999909650534, 0.017603499989490956, 0.033818399999290705, 0.05110769998282194, 0.06726099998923019, 0.08391999997547828, 0.10053459997288883, 0.11717829998815432, 0.13487509998958558, 0.15034159997594543, 0.1675600000016857, 0.1838819999829866, 0.20128559999284334, 0.21772769998642616, 0.23398169997381046, 0.2504789999802597, 0.2674315999902319, 0.28364919999148697, 0.3015132999862544, 0.31715809999150224, 0.33392259999527596, 0.3504765999969095, 0.36757989999023266, 0.38350709999212995, 0.4005017999734264, 0.4173537999740802, 0.43348759997752495, 0.450075199973071, 0.4671004999836441, 0.48353789999964647, 0.500066299980972, 0.5168871999776457, 0.5342020999814849, 0.5506337999831885, 0.5671417999838013, 0.5838561999844387, 0.6001389999873936, 0.6166903999983333, 0.63337529997807, 0.6503726999799255, 0.66684159997385, 0.6837487999873701, 0.7000054999953136, 0.7170839999744203, 0.7332326999749057, 0.7498028999834787, 0.7666160999797285, 0.7834065999777522, 0.7997624999843538, 0.8185058999806643, 0.8329739999899175, 0.8492983999894932, 0.865872299997136, 0.882755599974189, 0.8992596999742091, 0.9163093999959528, 0.9335886999906506, 0.9490865999832749, 0.9657227999996394, 0.9827860999794211, 0.9993948999908753, 1.0157112999877427, 1.032325199979823, 1.0492015999916475, 1.0661944999883417, 1.0825444999791216, 1.0990773999947123, 1.1165017999883275, 1.1325743999914266, 1.1499285999743734, 1.16645749998861, 1.1835409999766853, 1.1994622999918647, 1.216173599998001, 1.2333811999997124, 1.2501508999848738, 1.2660064999945462, 1.2843196999747306, 1.2998369999986608, 1.3170696999877691, 1.3331756999832578, 1.350379499985138, 1.3661202999937814, 1.3827380999864545, 1.3996302000014111, 1.4167756999959238, 1.4331641999888234, 1.450451599986991, 1.4662032999913208, 1.4831868999754079, 1.4991115999873728, 1.516653699974995, 1.532391099986853, 1.5496230999997351, 1.5671642999805044, 1.5829093999927863, 1.6004803999967407, 1.6159009999828413]",1.2531861700117588,None,70.17066709999926,None,70.17066709999926,None,70.17066709999926,None,70.17066709999926,70.68212419998599,70.17066709999926,None,0,001,2021_Mar_15_1018,vm_20xx,2020.2.4,60.04945673865205,
-0.3,0.3,0,,,,,,,,,0,9,9,5,,,,,,,,,,,,,,,,,,,,,,,,,,,,,,,,,,,,,,,71.16734539999743,None,71.16734539999743,None,72.19637789999251,None,71.16734539999743,None,"[0.0, 0.0, 0.0, 0.0, 0.0, 0.0, 0.0, 0.0, 0.0, 0.0, 0.0, 0.0, 0.0, 0.0, 0.0, 0.0, 0.0, 0.0, 0.0, 0.0, 0.0, 0.0, 0.0, 0.0, 0.0, 0.0, 0.0, 0.0, 0.0, 0.0, 0.0, 0.0, 0.0, 0.0, 0.0, 0.0, 0.0, 0.0, 0.0, 0.0, 0.0, 0.0, 0.0, 0.0, 0.0, -0.006481481481481481, -0.03148148148148148, -0.062037037037037036, -0.09351851851851851, -0.11481481481481481, -0.14351851851851852, -0.1638888888888889, -0.17962962962962964, -0.1935185185185185, -0.20462962962962963, -0.20925925925925926, -0.21388888888888888, -0.21851851851851853, -0.22685185185185186, -0.2324074074074074, -0.23981481481481481, -0.24444444444444444, -0.2490740740740741, -0.25092592592592594, -0.25277777777777777, -0.25555555555555554, -0.2574074074074074, -0.25925925925925924, -0.2611111111111111, -0.26481481481481484, -0.26666666666666666, -0.26851851851851855, -0.27037037037037037, -0.27314814814814814, -0.275, -0.27685185185185185, -0.2777777777777778, -0.2814814814814815, -0.2833333333333333, -0.2851851851851852, -0.28703703703703703, -0.2898148148148148, -0.29074074074074074, -0.29074074074074074, -0.29074074074074074, -0.29259259259259257, -0.29444444444444445, -0.2953703703703704, -0.29814814814814816, -0.29814814814814816, -0.3, -0.3, -0.3, -0.30092592592592593, -0.30092592592592593, -0.30185185185185187, -0.30462962962962964, -0.30648148148148147]","[0.0, 0.0, 0.0, 0.0, 0.0, 0.0, 0.0, 0.0, 0.0, 0.0, 0.0, 0.0, 0.0, 0.0, 0.0, 0.0, 0.0, 0.0, 0.0, 0.0, 0.0, 0.0, 0.0, 0.0, 0.0, 0.0, 0.0, 0.0, 0.0, 0.0, 0.0, 0.0, 0.0, 0.0, 0.0, 0.0, 0.0, 0.0, 0.0, 0.0, 0.0, 0.0, 0.0, 0.0, 0.0, 0.004629629629629629, 0.017592592592592594, 0.037037037037037035, 0.05740740740740741, 0.07407407407407407, 0.09722222222222222, 0.1111111111111111, 0.12685185185185185, 0.14074074074074075, 0.15462962962962962, 0.16018518518518518, 0.1648148148148148, 0.1712962962962963, 0.1814814814814815, 0.18796296296296297, 0.19814814814814816, 0.2037037037037037, 0.2111111111111111, 0.21388888888888888, 0.21481481481481482, 0.2175925925925926, 0.21944444444444444, 0.2222222222222222, 0.22407407407407406, 0.22777777777777777, 0.23055555555555557, 0.23333333333333334, 0.2351851851851852, 0.23703703703703705, 0.23981481481481481, 0.24166666666666667, 0.24259259259259258, 0.24537037037037038, 0.24814814814814815, 0.2490740740740741, 0.25277777777777777, 0.25462962962962965, 0.2564814814814815, 0.2564814814814815, 0.2564814814814815, 0.25925925925925924, 0.2601851851851852, 0.262037037037037, 0.26296296296296295, 0.26296296296296295, 0.2657407407407407, 0.2657407407407407, 0.2657407407407407, 0.26666666666666666, 0.26666666666666666, 0.2675925925925926, 0.26944444444444443, 0.2712962962962963]","[0, 0, 0, 0, 0, 0, 0, 0, 0, 0, 0, 0, 0, 0, 0, 0, 0, 0, 0, 0, 0, 0, 0, 0, 0, 0, 0, 0, 0, 0, 1, 1, 1, 1, 1, 1, 1, 1, 1, 1, 1, 1, 1, 1, 1, 1, 1, 1, 1, 1, 1, 1, 1, 1, 1, 1, 1, 1, 1, 1, 1, 1, 1, 1, 1, 1, 1, 1, 1, 1, 1, 1, 1, 1, 1, 1, 1, 1, 1, 1, 1, 1, 1, 1, 1, 1, 1, 1, 1, 1, 1, 1, 1, 1, 1, 1, 1, 1]","[0, 0, 0, 0, 0, 0, 0, 0, 0, 0, 0, 0, 0, 0, 0, 0, 0, 0, 0, 0, 0, 0, 0, 0, 0, 0, 0, 0, 0, 0, 0, 0, 0, 0, 0, 0, 0, 0, 0, 0, 0, 0, 0, 0, 0, 0, 0, 0, 0, 0, 0, 0, 0, 0, 0, 0, 0, 0, 0, 0, 0, 0, 0, 0, 0, 0, 0, 0, 0, 0, 0, 0, 0, 0, 0, 0, 0, 0, 0, 0, 0, 0, 0, 0, 0, 0, 0, 0, 0, 0, 0, 0, 0, 0, 0, 0, 0, 0]","[0, 0, 0, 0, 0, 0, 0, 0, 0, 0, 0, 0, 0, 0, 0, 0, 0, 0, 0, 0, 0, 0, 0, 0, 0, 0, 0, 0, 0, 0, 0, 0, 0, 0, 0, 0, 0, 0, 0, 0, 0, 0, 0, 0, 0, 0, 0, 0, 0, 0, 0, 0, 0, 0, 0, 0, 0, 0, 0, 0, 0, 0, 0, 0, 0, 0, 0, 0, 0, 0, 0, 0, 0, 0, 0, 0, 0, 0, 0, 0, 0, 0, 0, 0, 0, 0, 0, 0, 0, 0, 0, 0, 0, 0, 0, 0, 0, 0]","[0.0008505999867338687, 0.017457199981436133, 0.03413019998697564, 0.05155419997754507, 0.06784539998625405, 0.0840963999798987, 0.10259789999690838, 0.118121199979214, 0.13478459999896586, 0.15075879998039454, 0.16734210000140592, 0.18389479999314062, 0.20063029997982085, 0.2173111999873072, 0.23386559999198653, 0.25144369999179617, 0.2676385999948252, 0.28478549999999814, 0.30047359998570755, 0.31715809999150224, 0.33381300000473857, 0.35139120000530966, 0.3675663000030909, 0.3847788999846671, 0.4004013999947347, 0.4173692000040319, 0.4339946999971289, 0.4515227999945637, 0.4675787999876775, 0.48451149999164045, 0.5021403999999166, 0.5170128000027034, 0.533243499987293, 0.5498432999884244, 0.5666099999798462, 0.5830909999785945, 0.5996922999911476, 0.6176590999821201, 0.6338176999997813, 0.6500906999863219, 0.6663722999801394, 0.6834508999891113, 0.6995541999931447, 0.7160667999996804, 0.7333513999765273, 0.7502016999933403, 0.7667633999953978, 0.7845646999776363, 0.8003544999810401, 0.8177359999972396, 0.8338383999944199, 0.8502601999789476, 0.8676952999958303, 0.8843854999868199, 0.9001642999937758, 0.9175026000011712, 0.9333460000052582, 0.9498259999963921, 0.9668854000046849, 0.9840628999809269, 0.9997823000012431, 1.0168606999795884, 1.0333858999947552, 1.0508186999941245, 1.0673971999785863, 1.083486699993955, 1.0998075999959838, 1.117100399977062, 1.1347002999973483, 1.1505119999928866, 1.16746399999829, 1.183040899981279, 1.2000468999904115, 1.2166000999859534, 1.2341511999838986, 1.2496343999810051, 1.2665336999925785, 1.2829427999968175, 1.3007909999869298, 1.316920699988259, 1.333654199988814, 1.3496229999873322, 1.3660975999955554, 1.3824387999775354, 1.399731299985433, 1.4159513000049628, 1.4329327000014018, 1.4506997999851592, 1.4656729999987874, 1.48415639999439, 1.498861100000795, 1.5162876999820583, 1.5332525999983773, 1.548655199992936, 1.5657680000003893, 1.5833344999991823, 1.5992427000019234, 1.6171664999856148]",1.0528280699800234,None,73.85409999999683,None,73.85409999999683,None,73.85409999999683,None,73.85409999999683,74.36099659997853,73.85409999999683,None,0,001,2021_Mar_15_1018,vm_20xx,2020.2.4,60.04945673865205,
