target_x,target_y,rotation,trials.thisRepN,trials.thisTrialN,trials.thisN,trials.thisIndex,baseline_trials.thisRepN,baseline_trials.thisTrialN,baseline_trials.thisN,baseline_trials.thisIndex,blocks.thisRepN,blocks.thisTrialN,blocks.thisN,blocks.thisIndex,block_trials.thisRepN,block_trials.thisTrialN,block_trials.thisN,block_trials.thisIndex,Welcome.started,Welcome.stopped,mouse.started,mouse.stopped,text_3.started,text_3.stopped,mouse_6.started,mouse_6.stopped,baseline_enclosing_1.started,baseline_enclosing_1.stopped,baseline_enclosing.started,baseline_enclosing.stopped,baseline_target.started,baseline_target.stopped,baseline_fixation.started,baseline_fixation.stopped,baseline_mouse.x,baseline_mouse.y,baseline_mouse.leftButton,baseline_mouse.midButton,baseline_mouse.rightButton,baseline_mouse.time,baseline_mouse.started,baseline_mouse.stopped,baseline_enclosing_feedback_1.started,baseline_enclosing_feedback_1.stopped,baseline_enclosing_feedback.started,baseline_enclosing_feedback.stopped,baseline_target_feedback.started,baseline_target_feedback.stopped,baseline_fixation_feedback.started,baseline_fixation_feedback.stopped,baseline_score_text.started,baseline_score_text.stopped,text_2.started,text_2.stopped,mouse_3.started,mouse_3.stopped,rotated_enclosing_1.started,rotated_enclosing_1.stopped,rotated_enclosing.started,rotated_enclosing.stopped,rotated_target.started,rotated_target.stopped,rotated_fixation.started,rotated_fixation.stopped,rotated_mouse.x,rotated_mouse.y,rotated_mouse.leftButton,rotated_mouse.midButton,rotated_mouse.rightButton,rotated_mouse.time,rotated_mouse.started,rotated_mouse.stopped,participant,session,date,expName,psychopyVersion,frameRate,
,,,,,,,,,,,,,,,,,,,23.182793500003754,None,0.006470233347499743,None,,,,,,,,,,,,,,,,,,,,,,,,,,,,,,,,,,,,,,,,,,,,,,,,,,,0,001,2020_Oct_14_1209,vm_20xx,2020.2.4,None,
,,,,,,,,,,,,,,,,,,,,,,,23.9286676000047,None,1.0114044666552218,None,,,,,,,,,,,,,,,,,,,,,,,,,,,,,,,,,,,,,,,,,,,,,,,0,001,2020_Oct_14_1209,vm_20xx,2020.2.4,None,
-0.3,-0.3,0,,,,,0,0,0,6,,,,,,,,,,,,,,,,,25.500132100001792,None,25.500132100001792,None,26.371636800002307,None,25.500132100001792,None,"[-0.11666666666666667, -0.11666666666666667, -0.11666666666666667, -0.11666666666666667, 0.0, 0.0, 0.0, 0.0, 0.0, 0.0, 0.0, 0.0, 0.0, 0.0, 0.0, 0.0, 0.0, 0.0, 0.0, 0.0, 0.0, 0.0, 0.0, 0.0, 0.0, 0.0, 0.0, 0.0, 0.0, 0.0, 0.0, 0.0, 0.0, 0.0, 0.0, 0.0, 0.0, 0.0, 0.0, 0.0, 0.0, 0.0, 0.0, 0.0, 0.0, 0.0, 0.0, 0.0, 0.0]","[0.09166666666666666, 0.09166666666666666, 0.09166666666666666, 0.09166666666666666, 0.0, 0.0, 0.0, 0.0, 0.0, 0.0, 0.0, 0.0, 0.0, 0.0, 0.0, 0.0, 0.0, 0.0, 0.0, 0.0, 0.0, 0.0, 0.0, 0.0, 0.0, 0.0, 0.0, 0.0, 0.0, 0.0, 0.0, 0.0, 0.0, 0.0, 0.0, 0.0, 0.0, 0.0, 0.0, 0.0, 0.0, 0.0, 0.0, 0.0, 0.0, 0.0, 0.0, 0.0, 0.0]","[1, 1, 1, 1, 0, 0, 0, 0, 0, 0, 0, 0, 0, 0, 0, 0, 0, 0, 0, 0, 0, 0, 0, 0, 0, 0, 0, 0, 0, 0, 0, 0, 0, 0, 0, 0, 0, 0, 0, 0, 0, 0, 0, 0, 0, 0, 0, 0, 0]","[0, 0, 0, 0, 0, 0, 0, 0, 0, 0, 0, 0, 0, 0, 0, 0, 0, 0, 0, 0, 0, 0, 0, 0, 0, 0, 0, 0, 0, 0, 0, 0, 0, 0, 0, 0, 0, 0, 0, 0, 0, 0, 0, 0, 0, 0, 0, 0, 0]","[0, 0, 0, 0, 0, 0, 0, 0, 0, 0, 0, 0, 0, 0, 0, 0, 0, 0, 0, 0, 0, 0, 0, 0, 0, 0, 0, 0, 0, 0, 0, 0, 0, 0, 0, 0, 0, 0, 0, 0, 0, 0, 0, 0, 0, 0, 0, 0, 0]","[9.57000011112541e-05, 0.011231900003622286, 0.03396729999803938, 0.05064669999410398, 0.0674940000026254, 0.08510670000396203, 0.10523129999637604, 0.11746920000587124, 0.13650890000280924, 0.14866890000121202, 0.17403120000381023, 0.20019249999313615, 0.22719069999584462, 0.2351314999978058, 0.25245519999589305, 0.2744754000013927, 0.28953009999531787, 0.31623349999426864, 0.33387970000330824, 0.34942909999517724, 0.3727699000010034, 0.39197349999449216, 0.40520399999513756, 0.4212859999970533, 0.4374762999941595, 0.46122749999631196, 0.4698493000032613, 0.4915621999971336, 0.5072685000050114, 0.5309099000005517, 0.5521406000043498, 0.5697964999999385, 0.5914265000028536, 0.601880500005791, 0.6232848999934504, 0.6366777999937767, 0.651391399995191, 0.6703642999927979, 0.6835592999996152, 0.7079011000023456, 0.7210749999940163, 0.7360392999980832, 0.7567230999993626, 0.783088800002588, 0.7904294000036316, 0.8157999999966705, 0.8351453999930527, 0.8501818999939132, 0.8662752999953227]",0.008885300005204044,0.8910446999943815,27.470514600005117,None,27.470514600005117,None,27.470514600005117,None,27.470514600005117,27.969800500010024,27.470514600005117,None,,,,,,,,,,,,,,,,,,,,,0,001,2020_Oct_14_1209,vm_20xx,2020.2.4,None,
-0.3,-0.3,0,,,,,0,1,1,2,,,,,,,,,,,,,,,,,28.482361500005936,None,28.482361500005936,None,29.775645700006862,None,28.482361500005936,None,"[0.0, 0.0, 0.0, 0.0, 0.0, 0.0, 0.0, 0.0, 0.0, 0.0, 0.0, 0.0, 0.0, 0.0, 0.0, 0.0, 0.0, 0.0, 0.0, 0.0, 0.0, 0.0, 0.0, 0.0, 0.0, 0.0, 0.0, 0.0, 0.0, 0.0, 0.0, 0.0, 0.0, 0.0, 0.0, 0.0, 0.0, 0.0, 0.0, 0.0, 0.0, 0.0, 0.0, 0.0, 0.0, 0.0, 0.0, 0.0, 0.0, 0.0, 0.0, 0.0, 0.0, 0.0, 0.0, 0.0, 0.0, 0.0, 0.0, 0.0, 0.0, 0.0, 0.0, 0.0, 0.0, 0.0, 0.0, 0.0, 0.0, 0.0, 0.0]","[0.0, 0.0, 0.0, 0.0, 0.0, 0.0, 0.0, 0.0, 0.0, 0.0, 0.0, 0.0, 0.0, 0.0, 0.0, 0.0, 0.0, 0.0, 0.0, 0.0, 0.0, 0.0, 0.0, 0.0, 0.0, 0.0, 0.0, 0.0, 0.0, 0.0, 0.0, 0.0, 0.0, 0.0, 0.0, 0.0, 0.0, 0.0, 0.0, 0.0, 0.0, 0.0, 0.0, 0.0, 0.0, 0.0, 0.0, 0.0, 0.0, 0.0, 0.0, 0.0, 0.0, 0.0, 0.0, 0.0, 0.0, 0.0, 0.0, 0.0, 0.0, 0.0, 0.0, 0.0, 0.0, 0.0, 0.0, 0.0, 0.0, 0.0, 0.0]","[0, 0, 0, 0, 0, 0, 0, 0, 0, 0, 0, 0, 0, 0, 0, 0, 0, 0, 0, 0, 0, 0, 0, 0, 0, 0, 0, 0, 0, 0, 0, 0, 0, 0, 0, 0, 0, 0, 0, 0, 0, 0, 0, 0, 0, 0, 0, 0, 0, 0, 0, 0, 0, 0, 0, 0, 0, 0, 0, 0, 0, 0, 0, 0, 0, 0, 0, 0, 0, 0, 0]","[0, 0, 0, 0, 0, 0, 0, 0, 0, 0, 0, 0, 0, 0, 0, 0, 0, 0, 0, 0, 0, 0, 0, 0, 0, 0, 0, 0, 0, 0, 0, 0, 0, 0, 0, 0, 0, 0, 0, 0, 0, 0, 0, 0, 0, 0, 0, 0, 0, 0, 0, 0, 0, 0, 0, 0, 0, 0, 0, 0, 0, 0, 0, 0, 0, 0, 0, 0, 0, 0, 0]","[0, 0, 0, 0, 0, 0, 0, 0, 0, 0, 0, 0, 0, 0, 0, 0, 0, 0, 0, 0, 0, 0, 0, 0, 0, 0, 0, 0, 0, 0, 0, 0, 0, 0, 0, 0, 0, 0, 0, 0, 0, 0, 0, 0, 0, 0, 0, 0, 0, 0, 0, 0, 0, 0, 0, 0, 0, 0, 0, 0, 0, 0, 0, 0, 0, 0, 0, 0, 0, 0, 0]","[0.0001770999951986596, 0.014694600002258085, 0.035248799991677515, 0.05567839999275748, 0.08067870000377297, 0.08726269999169745, 0.10098570000263862, 0.12005199999839533, 0.14080379999359138, 0.15724289999343455, 0.18371299999125767, 0.20419950000359677, 0.2223558999976376, 0.23714820000168402, 0.2534587999980431, 0.2733118000032846, 0.29159349999099504, 0.3034561999957077, 0.3237098999961745, 0.35525029999553226, 0.3774842999991961, 0.3869820999971125, 0.40727109998988453, 0.42307530000107363, 0.44714679999742657, 0.47010069999669213, 0.49776509999355767, 0.5215992000012193, 0.5334778999967966, 0.559933299999102, 0.5722717000026023, 0.5870802999997977, 0.6012296999979299, 0.6185727999982191, 0.6432225000025937, 0.6716602999949828, 0.6847944999899482, 0.7024296000017785, 0.7213751999952365, 0.7442467999935616, 0.7542911999917123, 0.7722003999951994, 0.7856141999945976, 0.800085199996829, 0.81757590000052, 0.836238100004266, 0.8528057999938028, 0.8727301000035368, 0.8869549999944866, 0.9029209000000264, 0.9216882000037003, 0.9356775999913225, 0.9561164000042481, 0.9704359000024851, 0.9858754000015324, 1.0048024999996414, 1.020124599992414, 1.0373106999904849, 1.0549758999986807, 1.067257000002428, 1.0839066999906208, 1.1015238999971189, 1.1224989000038477, 1.138926999992691, 1.1557984999963082, 1.1704120999929728, 1.188861899994663, 1.221709599994938, 1.242850599999656, 1.2591448000021046, 1.2806932999956189]",0.0037354666710598394,1.3104948666587006,30.80367570000817,None,30.80367570000817,None,30.80367570000817,None,30.80367570000817,31.321512100010295,30.80367570000817,None,,,,,,,,,,,,,,,,,,,,,0,001,2020_Oct_14_1209,vm_20xx,2020.2.4,None,
-0.3,0.3,0,,,,,0,2,2,9,,,,,,,,,,,,,,,,,31.79903940000804,None,31.79903940000804,None,32.90032680000877,None,31.79903940000804,None,"[0.0, 0.0, 0.0, 0.0, 0.0, 0.0, 0.0, 0.0, 0.0, 0.0, 0.0, 0.0, 0.0, 0.0, 0.0, 0.0, 0.0, 0.0, 0.0, 0.0, 0.0, 0.0, 0.0, 0.0, 0.0, 0.0, 0.0, 0.0, 0.0, 0.0, 0.0, 0.0, 0.0, 0.0, 0.0, 0.0, 0.0, 0.0, 0.0, 0.0, 0.0, 0.0, 0.0, 0.0, 0.0, 0.0, 0.0, 0.0, 0.0, 0.0, 0.0, 0.0, 0.0, 0.0, 0.0, 0.0, 0.0, 0.0, 0.0, 0.0, 0.0, 0.0, 0.0, 0.0, 0.0, 0.0]","[0.0, 0.0, 0.0, 0.0, 0.0, 0.0, 0.0, 0.0, 0.0, 0.0, 0.0, 0.0, 0.0, 0.0, 0.0, 0.0, 0.0, 0.0, 0.0, 0.0, 0.0, 0.0, 0.0, 0.0, 0.0, 0.0, 0.0, 0.0, 0.0, 0.0, 0.0, 0.0, 0.0, 0.0, 0.0, 0.0, 0.0, 0.0, 0.0, 0.0, 0.0, 0.0, 0.0, 0.0, 0.0, 0.0, 0.0, 0.0, 0.0, 0.0, 0.0, 0.0, 0.0, 0.0, 0.0, 0.0, 0.0, 0.0, 0.0, 0.0, 0.0, 0.0, 0.0, 0.0, 0.0, 0.0]","[0, 0, 0, 0, 0, 0, 0, 0, 0, 0, 0, 0, 0, 0, 0, 0, 0, 0, 0, 0, 0, 0, 0, 0, 0, 0, 0, 0, 0, 0, 0, 0, 0, 0, 0, 0, 0, 0, 0, 0, 0, 0, 0, 0, 0, 0, 0, 0, 0, 0, 0, 0, 0, 0, 0, 0, 0, 0, 0, 0, 0, 0, 0, 0, 0, 0]","[0, 0, 0, 0, 0, 0, 0, 0, 0, 0, 0, 0, 0, 0, 0, 0, 0, 0, 0, 0, 0, 0, 0, 0, 0, 0, 0, 0, 0, 0, 0, 0, 0, 0, 0, 0, 0, 0, 0, 0, 0, 0, 0, 0, 0, 0, 0, 0, 0, 0, 0, 0, 0, 0, 0, 0, 0, 0, 0, 0, 0, 0, 0, 0, 0, 0]","[0, 0, 0, 0, 0, 0, 0, 0, 0, 0, 0, 0, 0, 0, 0, 0, 0, 0, 0, 0, 0, 0, 0, 0, 0, 0, 0, 0, 0, 0, 0, 0, 0, 0, 0, 0, 0, 0, 0, 0, 0, 0, 0, 0, 0, 0, 0, 0, 0, 0, 0, 0, 0, 0, 0, 0, 0, 0, 0, 0, 0, 0, 0, 0, 0, 0]","[0.00011190000805072486, 0.012535600006231107, 0.037016300004324876, 0.049692300002789125, 0.07015300000784919, 0.08379050000803545, 0.09779709999565966, 0.11644559999695048, 0.13115190000098664, 0.1525989999936428, 0.16690229999949224, 0.18398339999839664, 0.197199800008093, 0.21680059999926016, 0.23468989999673795, 0.2554223000042839, 0.26443450000078883, 0.2863775000005262, 0.3006794999964768, 0.31947909999871626, 0.33117970000603236, 0.3454261000006227, 0.3622116000042297, 0.3907880000042496, 0.40058489999501035, 0.42281370000273455, 0.42941729999438394, 0.4456573000061326, 0.46570539999811444, 0.48065800000040326, 0.4980349999968894, 0.5149759000050835, 0.5363016000046628, 0.559426000007079, 0.5819443000073079, 0.6000646000029519, 0.6248464999953285, 0.6307149000058416, 0.6448915999935707, 0.664949300000444, 0.687287099994137, 0.6981705000071088, 0.7184588999953121, 0.7361300000047777, 0.7489709000074072, 0.769052500007092, 0.7841237999964505, 0.7979159999958938, 0.8199967999971705, 0.8327849000052083, 0.8568598999991082, 0.8652008000062779, 0.889471999995294, 0.8981509000004735, 0.9142987999948673, 0.9358533000049647, 0.9647236000018893, 0.9839554000063799, 0.9983075000054669, 1.0215113000012934, 1.0332633000070928, 1.050242299999809, 1.0723953999986406, 1.0811034000071231, 1.0964317000034498, 1.114628499999526]",0.01404206667211838,1.1513576666766312,33.747418600003584,None,33.747418600003584,None,33.747418600003584,None,33.747418600003584,34.26003889999993,33.747418600003584,None,,,,,,,,,,,,,,,,,,,,,0,001,2020_Oct_14_1209,vm_20xx,2020.2.4,None,
0.3,-0.3,0,,,,,0,3,3,3,,,,,,,,,,,,,,,,,34.75292330000957,None,34.75292330000957,None,35.44788020000851,None,34.75292330000957,None,"[0.0, 0.0, 0.0, 0.0, 0.0, 0.0, 0.0, 0.0, 0.0, 0.0, 0.0, 0.0, 0.0, 0.0, 0.0, 0.0, 0.0, 0.0, 0.0, 0.0, 0.0, 0.0, 0.0, 0.0, 0.0, 0.0, 0.0, 0.0, 0.0, 0.0, 0.0, 0.0, 0.0, 0.0, 0.0, 0.0, 0.0, 0.0, 0.0, 0.0, 0.0, 0.0, 0.0]","[0.0, 0.0, 0.0, 0.0, 0.0, 0.0, 0.0, 0.0, 0.0, 0.0, 0.0, 0.0, 0.0, 0.0, 0.0, 0.0, 0.0, 0.0, 0.0, 0.0, 0.0, 0.0, 0.0, 0.0, 0.0, 0.0, 0.0, 0.0, 0.0, 0.0, 0.0, 0.0, 0.0, 0.0, 0.0, 0.0, 0.0, 0.0, 0.0, 0.0, 0.0, 0.0, 0.0]","[0, 0, 0, 0, 0, 0, 0, 0, 0, 0, 0, 0, 0, 0, 0, 0, 0, 0, 0, 0, 0, 0, 0, 0, 0, 0, 0, 0, 0, 0, 0, 0, 0, 0, 0, 0, 0, 0, 0, 0, 0, 0, 0]","[0, 0, 0, 0, 0, 0, 0, 0, 0, 0, 0, 0, 0, 0, 0, 0, 0, 0, 0, 0, 0, 0, 0, 0, 0, 0, 0, 0, 0, 0, 0, 0, 0, 0, 0, 0, 0, 0, 0, 0, 0, 0, 0]","[0, 0, 0, 0, 0, 0, 0, 0, 0, 0, 0, 0, 0, 0, 0, 0, 0, 0, 0, 0, 0, 0, 0, 0, 0, 0, 0, 0, 0, 0, 0, 0, 0, 0, 0, 0, 0, 0, 0, 0, 0, 0, 0]","[0.00020619999850168824, 0.019383000006200746, 0.04112760000862181, 0.04980400000931695, 0.06981050000467803, 0.08580990000336897, 0.11890770000172779, 0.13582950001000427, 0.15108900000632275, 0.16713570000138134, 0.18138580000959337, 0.1972998999990523, 0.21616910000739153, 0.23325279999698978, 0.24765710000065155, 0.265431300009368, 0.28290030000789557, 0.30114850000245497, 0.31517250000615604, 0.3350734999985434, 0.35850800000480376, 0.3673475999967195, 0.38400440000987146, 0.39963329999591224, 0.416509100003168, 0.42991479999909643, 0.4507147999975132, 0.46419020000030287, 0.4801508000091417, 0.4988477000006242, 0.5212482000060845, 0.5338282000011532, 0.5529476000083378, 0.5660501000093063, 0.5821433000091929, 0.599163300008513, 0.613019099997473, 0.6316327000095043, 0.6444147000001976, 0.6616650000069058, 0.68090970000776, 0.699014800004079, 0.7135262000083458]",0.010032166668679565,0.7413540666602785,37.0823817000055,None,37.0823817000055,None,37.0823817000055,None,37.0823817000055,37.59831750000012,37.0823817000055,None,,,,,,,,,,,,,,,,,,,,,0,001,2020_Oct_14_1209,vm_20xx,2020.2.4,None,
0.3,-0.3,0,,,,,0,4,4,15,,,,,,,,,,,,,,,,,38.10510630000499,None,38.10510630000499,None,39.26793020000332,None,38.10510630000499,None,"[0.36018518518518516, 0.36018518518518516, 0.36018518518518516, 0.36018518518518516, 0.36018518518518516, 0.36018518518518516, 0.36018518518518516, 0.36018518518518516, 0.3611111111111111, 0.3611111111111111, 0.36203703703703705, 0.36203703703703705, 0.0, 0.0, 0.0, 0.0, 0.0, 0.0, 0.0, 0.0, 0.0, 0.0, 0.0, 0.0, 0.0, 0.0, 0.0, 0.0, 0.0, 0.0, 0.0, 0.0, 0.0, 0.0, 0.0, 0.0, 0.0, 0.0, 0.0, 0.0, 0.0, 0.0, 0.0, 0.0, 0.0, 0.0, 0.0, 0.0, 0.0, 0.0, 0.0, 0.0, 0.0, 0.0, 0.0, 0.0, 0.0, 0.0, 0.0, 0.0, 0.0, 0.0, 0.0, 0.0, 0.0]","[-0.3138888888888889, -0.3138888888888889, -0.3138888888888889, -0.3148148148148148, -0.3148148148148148, -0.3148148148148148, -0.3148148148148148, -0.3148148148148148, -0.31574074074074077, -0.31574074074074077, -0.31666666666666665, -0.31851851851851853, 0.0, 0.0, 0.0, 0.0, 0.0, 0.0, 0.0, 0.0, 0.0, 0.0, 0.0, 0.0, 0.0, 0.0, 0.0, 0.0, 0.0, 0.0, 0.0, 0.0, 0.0, 0.0, 0.0, 0.0, 0.0, 0.0, 0.0, 0.0, 0.0, 0.0, 0.0, 0.0, 0.0, 0.0, 0.0, 0.0, 0.0, 0.0, 0.0, 0.0, 0.0, 0.0, 0.0, 0.0, 0.0, 0.0, 0.0, 0.0, 0.0, 0.0, 0.0, 0.0, 0.0]","[1, 1, 1, 1, 1, 1, 1, 1, 1, 1, 1, 1, 0, 0, 0, 0, 0, 0, 0, 0, 0, 0, 0, 0, 0, 0, 0, 0, 0, 0, 0, 0, 0, 0, 0, 0, 0, 0, 0, 0, 0, 0, 0, 0, 0, 0, 0, 0, 0, 0, 0, 0, 0, 0, 0, 0, 0, 0, 0, 0, 0, 0, 0, 0, 0]","[0, 0, 0, 0, 0, 0, 0, 0, 0, 0, 0, 0, 0, 0, 0, 0, 0, 0, 0, 0, 0, 0, 0, 0, 0, 0, 0, 0, 0, 0, 0, 0, 0, 0, 0, 0, 0, 0, 0, 0, 0, 0, 0, 0, 0, 0, 0, 0, 0, 0, 0, 0, 0, 0, 0, 0, 0, 0, 0, 0, 0, 0, 0, 0, 0]","[0, 0, 0, 0, 0, 0, 0, 0, 0, 0, 0, 0, 0, 0, 0, 0, 0, 0, 0, 0, 0, 0, 0, 0, 0, 0, 0, 0, 0, 0, 0, 0, 0, 0, 0, 0, 0, 0, 0, 0, 0, 0, 0, 0, 0, 0, 0, 0, 0, 0, 0, 0, 0, 0, 0, 0, 0, 0, 0, 0, 0, 0, 0, 0, 0]","[0.00021430000197142363, 0.020762899992405437, 0.0347810999955982, 0.0581982000003336, 0.07445960000040941, 0.09327610000036657, 0.10944329999620095, 0.12557269999524578, 0.13942049999604933, 0.15882820000115316, 0.17827399999077898, 0.1935135999956401, 0.20739049999974668, 0.227137900001253, 0.24684690000140108, 0.2668134999985341, 0.28504550000070594, 0.31174629999441095, 0.33385189999535214, 0.3435045999940485, 0.35750840000400785, 0.37066249999043066, 0.39935989999503363, 0.40625069999077823, 0.42216929999995045, 0.4407401999924332, 0.4622726999950828, 0.47512980000465177, 0.488274299990735, 0.5120977999904426, 0.525410300004296, 0.5414712999918265, 0.5554556999995839, 0.5715646000026027, 0.5949231999984477, 0.6060653000022285, 0.620968899995205, 0.6406886000040686, 0.6584600999922259, 0.6798825000005309, 0.7031654000020353, 0.7226851000013994, 0.7379662000021199, 0.754709400003776, 0.775264399999287, 0.8027727000007872, 0.8138750999933109, 0.8358234000043012, 0.8534328999958234, 0.8792557999986457, 0.8942718000034802, 0.910387299998547, 0.9309161999990465, 0.9374053999927128, 0.9561933999939356, 0.9791156999999657, 0.9953315000020666, 1.0226084000023548, 1.0400674999982584, 1.0543640999967465, 1.080490699998336, 1.0906050999910804, 1.1065192999958526, 1.124808699998539, 1.142641200000071]",0.011973866654443555,1.1915549666591687,40.38989069999661,None,40.38989069999661,None,40.38989069999661,None,40.38989069999661,40.89150189999782,40.38989069999661,None,,,,,,,,,,,,,,,,,,,,,0,001,2020_Oct_14_1209,vm_20xx,2020.2.4,None,
0.3,0.3,0,,,,,0,5,5,4,,,,,,,,,,,,,,,,,41.399185100002796,None,41.399185100002796,None,41.936177299998235,None,41.399185100002796,None,"[0.0, 0.0, 0.0, 0.0, 0.0, 0.0, 0.0, 0.0, 0.0, 0.0, 0.0, 0.0, 0.0, 0.0, 0.0, 0.0, 0.0, 0.0, 0.0, 0.0, 0.0, 0.0, 0.0, 0.0, 0.0, 0.0, 0.0, 0.0, 0.0]","[0.0, 0.0, 0.0, 0.0, 0.0, 0.0, 0.0, 0.0, 0.0, 0.0, 0.0, 0.0, 0.0, 0.0, 0.0, 0.0, 0.0, 0.0, 0.0, 0.0, 0.0, 0.0, 0.0, 0.0, 0.0, 0.0, 0.0, 0.0, 0.0]","[0, 0, 0, 0, 0, 0, 0, 0, 0, 0, 0, 0, 0, 0, 0, 0, 0, 0, 0, 0, 0, 0, 0, 0, 0, 0, 0, 0, 0]","[0, 0, 0, 0, 0, 0, 0, 0, 0, 0, 0, 0, 0, 0, 0, 0, 0, 0, 0, 0, 0, 0, 0, 0, 0, 0, 0, 0, 0]","[0, 0, 0, 0, 0, 0, 0, 0, 0, 0, 0, 0, 0, 0, 0, 0, 0, 0, 0, 0, 0, 0, 0, 0, 0, 0, 0, 0, 0]","[0.0002778000052785501, 0.00828150000597816, 0.031597599998349324, 0.0596475000056671, 0.07092220000049565, 0.08899289999681059, 0.10595559999637771, 0.13337579999642912, 0.15193019999423996, 0.17167919999337755, 0.1846127000026172, 0.20016379999287892, 0.2205240000039339, 0.24309659999562427, 0.2528106999961892, 0.27762589999474585, 0.29849600000306964, 0.31900439999299124, 0.33630120000452735, 0.3584139000013238, 0.36931059999915306, 0.3850031000038143, 0.4021348999958718, 0.42390039999736473, 0.4341720999946119, 0.44814510000287555, 0.46769449999555945, 0.48684709999361075, 0.5060631999949692]",0.006402066646842286,0.5273781666473951,42.77670980000403,None,42.77670980000403,None,42.77670980000403,None,42.77670980000403,43.29957830000785,42.77670980000403,None,,,,,,,,,,,,,,,,,,,,,0,001,2020_Oct_14_1209,vm_20xx,2020.2.4,None,
0.3,-0.3,0,,,,,0,6,6,11,,,,,,,,,,,,,,,,,43.77387750000344,None,43.77387750000344,None,44.54059689999849,None,43.77387750000344,None,"[0.0, 0.0, 0.0, 0.0, 0.0, 0.0, 0.0, 0.0, 0.0, 0.0, 0.0, 0.0, 0.0, 0.0, 0.0, 0.0, 0.0, 0.0, 0.0, 0.0, 0.0, 0.0, 0.0, 0.0, 0.0, 0.0, 0.0, 0.0, 0.0, 0.0, 0.0, 0.0, 0.0, 0.0, 0.0, 0.0, 0.0, 0.0, 0.0, 0.0, 0.0, 0.0, 0.0, 0.0, 0.0, 0.0, 0.0, 0.0]","[0.0, 0.0, 0.0, 0.0, 0.0, 0.0, 0.0, 0.0, 0.0, 0.0, 0.0, 0.0, 0.0, 0.0, 0.0, 0.0, 0.0, 0.0, 0.0, 0.0, 0.0, 0.0, 0.0, 0.0, 0.0, 0.0, 0.0, 0.0, 0.0, 0.0, 0.0, 0.0, 0.0, 0.0, 0.0, 0.0, 0.0, 0.0, 0.0, 0.0, 0.0, 0.0, 0.0, 0.0, 0.0, 0.0, 0.0, 0.0]","[0, 0, 0, 0, 0, 0, 0, 0, 0, 0, 0, 0, 0, 0, 0, 0, 0, 0, 0, 0, 0, 0, 0, 0, 0, 0, 0, 0, 0, 0, 0, 0, 0, 0, 0, 0, 0, 0, 0, 0, 0, 0, 0, 0, 0, 0, 0, 0]","[0, 0, 0, 0, 0, 0, 0, 0, 0, 0, 0, 0, 0, 0, 0, 0, 0, 0, 0, 0, 0, 0, 0, 0, 0, 0, 0, 0, 0, 0, 0, 0, 0, 0, 0, 0, 0, 0, 0, 0, 0, 0, 0, 0, 0, 0, 0, 0]","[0, 0, 0, 0, 0, 0, 0, 0, 0, 0, 0, 0, 0, 0, 0, 0, 0, 0, 0, 0, 0, 0, 0, 0, 0, 0, 0, 0, 0, 0, 0, 0, 0, 0, 0, 0, 0, 0, 0, 0, 0, 0, 0, 0, 0, 0, 0, 0]","[0.0002449000021442771, 0.017257200001040474, 0.03823550000379328, 0.048412999996799044, 0.06355240000993945, 0.08204520000435878, 0.10421420000784565, 0.1146671000024071, 0.12899240000115242, 0.15324729999701958, 0.16907200000423472, 0.19011450000107288, 0.19747460000508, 0.21548900000925642, 0.23469900000782218, 0.25699370000802446, 0.26304089999757707, 0.28394419999676757, 0.3037888000108069, 0.32089909999922384, 0.3315776000090409, 0.3476121999992756, 0.36620200000470504, 0.38471019999997225, 0.4004124000057345, 0.4140146999998251, 0.434843600000022, 0.4560988000012003, 0.4631999999983236, 0.479319400008535, 0.4973236000078032, 0.5169581000081962, 0.5358828000025824, 0.5532093000074383, 0.5655986000056146, 0.5835975000081817, 0.6029439999983879, 0.6190027999982703, 0.6300678999978118, 0.6503571000066586, 0.6647895000060089, 0.6817511999979615, 0.6975068000028841, 0.7158958000072744, 0.733060700003989, 0.747378200001549, 0.7646397000062279, 0.7826120000099763]",0.014573966662283055,0.8195944666658761,45.27240050000546,None,45.27240050000546,None,45.27240050000546,None,45.27240050000546,45.770753700009664,45.27240050000546,None,,,,,,,,,,,,,,,,,,,,,0,001,2020_Oct_14_1209,vm_20xx,2020.2.4,None,
0.3,0.3,0,,,,,0,7,7,12,,,,,,,,,,,,,,,,,46.27734800000326,None,46.27734800000326,None,47.348187399999006,None,46.27734800000326,None,"[0.0, 0.0, 0.0, 0.0, 0.0, 0.0, 0.0, 0.0, 0.0, 0.0, 0.0, 0.0, 0.0, 0.0, 0.0, 0.0, 0.0, 0.0, 0.0, 0.0, 0.0, 0.0, 0.0, 0.0, 0.0, 0.0, 0.0, 0.0, 0.0, 0.0, 0.0, 0.0, 0.0, 0.0, 0.0, 0.0, 0.0, 0.0, 0.0, 0.0, 0.0, 0.0, 0.0, 0.0, 0.0, 0.0, 0.0, 0.0, 0.0, 0.0, 0.0, 0.0, 0.0, 0.0, 0.0, 0.0, 0.0, 0.0, 0.0, 0.0, 0.0, 0.0]","[0.0, 0.0, 0.0, 0.0, 0.0, 0.0, 0.0, 0.0, 0.0, 0.0, 0.0, 0.0, 0.0, 0.0, 0.0, 0.0, 0.0, 0.0, 0.0, 0.0, 0.0, 0.0, 0.0, 0.0, 0.0, 0.0, 0.0, 0.0, 0.0, 0.0, 0.0, 0.0, 0.0, 0.0, 0.0, 0.0, 0.0, 0.0, 0.0, 0.0, 0.0, 0.0, 0.0, 0.0, 0.0, 0.0, 0.0, 0.0, 0.0, 0.0, 0.0, 0.0, 0.0, 0.0, 0.0, 0.0, 0.0, 0.0, 0.0, 0.0, 0.0, 0.0]","[0, 0, 0, 0, 0, 0, 0, 0, 0, 0, 0, 0, 0, 0, 0, 0, 0, 0, 0, 0, 0, 0, 0, 0, 0, 0, 0, 0, 0, 0, 1, 1, 1, 1, 1, 1, 1, 1, 1, 1, 1, 1, 1, 1, 1, 1, 1, 1, 1, 1, 1, 1, 1, 1, 1, 1, 1, 1, 1, 0, 0, 0]","[0, 0, 0, 0, 0, 0, 0, 0, 0, 0, 0, 0, 0, 0, 0, 0, 0, 0, 0, 0, 0, 0, 0, 0, 0, 0, 0, 0, 0, 0, 0, 0, 0, 0, 0, 0, 0, 0, 0, 0, 0, 0, 0, 0, 0, 0, 0, 0, 0, 0, 0, 0, 0, 0, 0, 0, 0, 0, 0, 0, 0, 0]","[0, 0, 0, 0, 0, 0, 0, 0, 0, 0, 0, 0, 0, 0, 0, 0, 0, 0, 0, 0, 0, 0, 0, 0, 0, 0, 0, 0, 0, 0, 0, 0, 0, 0, 0, 0, 0, 0, 0, 0, 0, 0, 0, 0, 0, 0, 0, 0, 0, 0, 0, 0, 0, 0, 0, 0, 0, 0, 0, 0, 0, 0]","[0.00014740000187885016, 0.018177800011471845, 0.03066420000686776, 0.05173360000480898, 0.07921960001112893, 0.09216280000691768, 0.11136960001022089, 0.1297999000089476, 0.1486628999991808, 0.16097890000673942, 0.17875459999777377, 0.1999814000009792, 0.22414400000707246, 0.25157510000281036, 0.26120170000649523, 0.2853188000008231, 0.29438230000960175, 0.3119955000001937, 0.3294352000084473, 0.3528697000001557, 0.3629615000099875, 0.3793267000000924, 0.40718790001119487, 0.4155451999977231, 0.42915050000010524, 0.44603340000321623, 0.4643497000070056, 0.48225090000778437, 0.5020477000070969, 0.5201973000075668, 0.5440092000062577, 0.561620500011486, 0.584970500000054, 0.5994856000033906, 0.6208640999975614, 0.6283196000003954, 0.6439294000010705, 0.6587675000046147, 0.6785505000007106, 0.6946919000038179, 0.7121246000024257, 0.7257742000074359, 0.744935800001258, 0.7616866000025766, 0.7758249000034994, 0.7943066000007093, 0.8113120000052731, 0.8292634000099497, 0.8433318000024883, 0.8610713000089163, 0.8751774000120349, 0.8915521000017179, 0.9125812999991467, 0.9301185000076657, 0.9498579000064638, 0.963148299997556, 0.9790920000086771, 0.9935079999995651, 1.009763699999894, 1.0294195000024047, 1.0471077000111109, 1.0660704000038095]",0.01303386666404549,1.1006869666598504,48.259665800011135,None,48.259665800011135,None,48.259665800011135,None,48.259665800011135,48.75618160000886,48.259665800011135,None,,,,,,,,,,,,,,,,,,,,,0,001,2020_Oct_14_1209,vm_20xx,2020.2.4,None,
0.3,0.3,0,,,,,0,8,8,8,,,,,,,,,,,,,,,,,49.27657790000376,None,49.27657790000376,None,49.788762600001064,None,49.27657790000376,None,"[0.0, 0.0, 0.0, 0.0, 0.0, 0.0, 0.0, 0.0, 0.0, 0.0, 0.0, 0.0, 0.0, 0.0, 0.0, 0.0, 0.0, 0.0, 0.0, 0.0, 0.0, 0.0, 0.0, 0.0, 0.0, 0.0, 0.0, 0.0, 0.0, 0.0, 0.0, 0.0]","[0.0, 0.0, 0.0, 0.0, 0.0, 0.0, 0.0, 0.0, 0.0, 0.0, 0.0, 0.0, 0.0, 0.0, 0.0, 0.0, 0.0, 0.0, 0.0, 0.0, 0.0, 0.0, 0.0, 0.0, 0.0, 0.0, 0.0, 0.0, 0.0, 0.0, 0.0, 0.0]","[0, 0, 0, 0, 0, 0, 0, 0, 0, 0, 0, 0, 0, 0, 0, 0, 0, 0, 0, 0, 0, 0, 0, 0, 0, 0, 0, 0, 0, 0, 0, 0]","[0, 0, 0, 0, 0, 0, 0, 0, 0, 0, 0, 0, 0, 0, 0, 0, 0, 0, 0, 0, 0, 0, 0, 0, 0, 0, 0, 0, 0, 0, 0, 0]","[0, 0, 0, 0, 0, 0, 0, 0, 0, 0, 0, 0, 0, 0, 0, 0, 0, 0, 0, 0, 0, 0, 0, 0, 0, 0, 0, 0, 0, 0, 0, 0]","[0.0004093000025022775, 0.016180000005988404, 0.03398390000802465, 0.04814800000167452, 0.07247569999890402, 0.09213129999989178, 0.10573500000464264, 0.12796349999553058, 0.1371417000045767, 0.15659129999403376, 0.17526800000632647, 0.19100479999906383, 0.2073575999966124, 0.22278609999921173, 0.24159140000119805, 0.2627119999960996, 0.27320130000589415, 0.2879296000028262, 0.3058921000047121, 0.32486799999605864, 0.3413390000059735, 0.35935410000092816, 0.3742040000070119, 0.39264259999617934, 0.4077374000044074, 0.4245770999987144, 0.4466956999967806, 0.45615739999630023, 0.4818414000037592, 0.4929245999956038, 0.5136208000039915, 0.5259483999980148]",0.00876606666133739,0.560196366670425,52.266082700007246,None,52.266082700007246,None,52.266082700007246,None,52.266082700007246,52.76816960000724,52.266082700007246,None,,,,,,,,,,,,,,,,,,,,,0,001,2020_Oct_14_1209,vm_20xx,2020.2.4,None,
0.3,0.3,0,,,,,0,9,9,0,,,,,,,,,,,,,,,,,53.25782480000635,None,53.25782480000635,None,54.41845350000949,None,53.25782480000635,None,"[0.0, 0.0, 0.0, 0.0, 0.0, 0.0, 0.0, 0.0, 0.0, 0.0, 0.0, 0.0, 0.0, 0.0, 0.0, 0.0, 0.0, 0.0, 0.0, 0.0, 0.0, 0.0, 0.0, 0.0, 0.0, 0.0, 0.0, 0.0, 0.0, 0.0, 0.0, 0.0, 0.0, 0.0, 0.0, 0.0, 0.0, 0.0, 0.0, 0.0, 0.0, 0.0, 0.0, 0.0, 0.0, 0.0, 0.0, 0.0, 0.0, 0.0, 0.0, 0.0, 0.0, 0.0, 0.0, 0.0, 0.0, 0.0, 0.0, 0.0, 0.0, 0.0, 0.0, 0.0, 0.0]","[0.0, 0.0, 0.0, 0.0, 0.0, 0.0, 0.0, 0.0, 0.0, 0.0, 0.0, 0.0, 0.0, 0.0, 0.0, 0.0, 0.0, 0.0, 0.0, 0.0, 0.0, 0.0, 0.0, 0.0, 0.0, 0.0, 0.0, 0.0, 0.0, 0.0, 0.0, 0.0, 0.0, 0.0, 0.0, 0.0, 0.0, 0.0, 0.0, 0.0, 0.0, 0.0, 0.0, 0.0, 0.0, 0.0, 0.0, 0.0, 0.0, 0.0, 0.0, 0.0, 0.0, 0.0, 0.0, 0.0, 0.0, 0.0, 0.0, 0.0, 0.0, 0.0, 0.0, 0.0, 0.0]","[0, 0, 0, 0, 0, 0, 0, 0, 0, 0, 0, 0, 0, 0, 0, 0, 0, 0, 0, 0, 0, 0, 0, 0, 0, 0, 0, 0, 0, 0, 0, 0, 0, 0, 0, 0, 0, 0, 0, 0, 0, 0, 0, 0, 0, 0, 0, 0, 0, 0, 0, 0, 0, 0, 0, 0, 0, 0, 0, 0, 0, 0, 0, 0, 0]","[0, 0, 0, 0, 0, 0, 0, 0, 0, 0, 0, 0, 0, 0, 0, 0, 0, 0, 0, 0, 0, 0, 0, 0, 0, 0, 0, 0, 0, 0, 0, 0, 0, 0, 0, 0, 0, 0, 0, 0, 0, 0, 0, 0, 0, 0, 0, 0, 0, 0, 0, 0, 0, 0, 0, 0, 0, 0, 0, 0, 0, 0, 0, 0, 0]","[0, 0, 0, 0, 0, 0, 0, 0, 0, 0, 0, 0, 0, 0, 0, 0, 0, 0, 0, 0, 0, 0, 0, 0, 0, 0, 0, 0, 0, 0, 0, 0, 0, 0, 0, 0, 0, 0, 0, 0, 0, 0, 0, 0, 0, 0, 0, 0, 0, 0, 0, 0, 0, 0, 0, 0, 0, 0, 0, 0, 0, 0, 0, 0, 0]","[0.0005048000020906329, 0.011515000005601905, 0.0325516000011703, 0.05152210000960622, 0.07430540000495967, 0.08454640000127256, 0.10403670000960119, 0.12238470000738744, 0.1409226999967359, 0.16413820000889245, 0.18407650000881404, 0.19817090001015458, 0.21422390000952873, 0.23385970000526868, 0.2540704999992158, 0.2674451000057161, 0.2809791000036057, 0.2963352000078885, 0.3199553000013111, 0.33393860000069253, 0.3499327000026824, 0.36693460000969935, 0.37978730000031646, 0.3946305999998003, 0.41887880000285804, 0.4315824000077555, 0.4524861999962013, 0.471655200002715, 0.48431800000253133, 0.5030958999996074, 0.5222852000006242, 0.5354386999970302, 0.5532285000081174, 0.5679727000097046, 0.585402199998498, 0.6019629000074929, 0.621184000003268, 0.6376085000083549, 0.6685476999991806, 0.6859698000043863, 0.7071682000096189, 0.715793900002609, 0.7345302000030642, 0.7495569000020623, 0.7640786999982083, 0.7823712999961572, 0.7974318000051426, 0.8147858000011183, 0.83229360000405, 0.8534321000042837, 0.8784809000062523, 0.8866638000035891, 0.9143538000062108, 0.9380586000042967, 0.9550412999960827, 0.9787500000093132, 1.0060950000042794, 1.0150085000059335, 1.0404961000022013, 1.0555814999970607, 1.0753771000017878, 1.0995839000097476, 1.1156822000048123, 1.1307085000007646, 1.1513228999974672]",0.006562166658113711,1.1767298666527495,55.30170940000971,None,55.30170940000971,None,55.30170940000971,None,55.30170940000971,55.81121159999748,55.30170940000971,None,,,,,,,,,,,,,,,,,,,,,0,001,2020_Oct_14_1209,vm_20xx,2020.2.4,None,
-0.3,0.3,0,,,,,0,10,10,1,,,,,,,,,,,,,,,,,56.32331210000848,None,56.32331210000848,None,57.55195100000128,None,56.32331210000848,None,"[0.0, 0.0, 0.0, 0.0, 0.0, 0.0, 0.0, 0.0, 0.0, 0.0, 0.0, 0.0, 0.0, 0.0, 0.0, 0.0, 0.0, 0.0, 0.0, 0.0, 0.0, 0.0, 0.0, 0.0, 0.0, 0.0, 0.0, 0.0, 0.0, 0.0, 0.0, 0.0, 0.0, 0.0, 0.0, 0.0, 0.0, 0.0, 0.0, 0.0, 0.0, 0.0, 0.0, 0.0, 0.0, 0.0, 0.0, 0.0, 0.0, 0.0, 0.0, 0.0, 0.0, 0.0, 0.0, 0.0, 0.0, 0.0, 0.0, 0.0, 0.0, 0.0, 0.0, 0.0, 0.0, 0.0, 0.0, 0.0, 0.0]","[0.0, 0.0, 0.0, 0.0, 0.0, 0.0, 0.0, 0.0, 0.0, 0.0, 0.0, 0.0, 0.0, 0.0, 0.0, 0.0, 0.0, 0.0, 0.0, 0.0, 0.0, 0.0, 0.0, 0.0, 0.0, 0.0, 0.0, 0.0, 0.0, 0.0, 0.0, 0.0, 0.0, 0.0, 0.0, 0.0, 0.0, 0.0, 0.0, 0.0, 0.0, 0.0, 0.0, 0.0, 0.0, 0.0, 0.0, 0.0, 0.0, 0.0, 0.0, 0.0, 0.0, 0.0, 0.0, 0.0, 0.0, 0.0, 0.0, 0.0, 0.0, 0.0, 0.0, 0.0, 0.0, 0.0, 0.0, 0.0, 0.0]","[0, 0, 0, 0, 0, 0, 0, 0, 0, 0, 0, 0, 0, 0, 0, 0, 0, 0, 0, 0, 0, 0, 0, 0, 0, 0, 0, 0, 0, 0, 0, 0, 0, 0, 0, 0, 0, 0, 0, 0, 0, 0, 0, 0, 0, 0, 0, 0, 0, 0, 0, 0, 0, 0, 0, 0, 0, 0, 0, 0, 0, 0, 0, 0, 0, 0, 0, 0, 0]","[0, 0, 0, 0, 0, 0, 0, 0, 0, 0, 0, 0, 0, 0, 0, 0, 0, 0, 0, 0, 0, 0, 0, 0, 0, 0, 0, 0, 0, 0, 0, 0, 0, 0, 0, 0, 0, 0, 0, 0, 0, 0, 0, 0, 0, 0, 0, 0, 0, 0, 0, 0, 0, 0, 0, 0, 0, 0, 0, 0, 0, 0, 0, 0, 0, 0, 0, 0, 0]","[0, 0, 0, 0, 0, 0, 0, 0, 0, 0, 0, 0, 0, 0, 0, 0, 0, 0, 0, 0, 0, 0, 0, 0, 0, 0, 0, 0, 0, 0, 0, 0, 0, 0, 0, 0, 0, 0, 0, 0, 0, 0, 0, 0, 0, 0, 0, 0, 0, 0, 0, 0, 0, 0, 0, 0, 0, 0, 0, 0, 0, 0, 0, 0, 0, 0, 0, 0, 0]","[0.0003618000046117231, 0.018123300003935583, 0.02855670001008548, 0.05219480000960175, 0.07839990001230035, 0.09995150000031572, 0.12221600000339095, 0.13122300000395626, 0.16004860000975896, 0.18315710000752006, 0.18949580000480637, 0.20575120000285096, 0.22784980000869837, 0.24177530000451952, 0.25888860000122804, 0.27864420000696555, 0.2997886000084691, 0.30805140000302345, 0.3245595000043977, 0.35257620000629686, 0.3605969000054756, 0.37382190000789706, 0.3898493000015151, 0.40848180001194123, 0.4287068999983603, 0.4393753000040306, 0.4593656000070041, 0.47791180000058375, 0.4901127000048291, 0.5114127999986522, 0.5238894000067376, 0.53836279999814, 0.5574417000025278, 0.5744215000013355, 0.5879320000094594, 0.6063022000016645, 0.6249143000022741, 0.6477716000081273, 0.6599506000056863, 0.6822554000100354, 0.7114833000086946, 0.7220177000126569, 0.7499338000052376, 0.7589416000118945, 0.782395300004282, 0.7963474999996834, 0.823696799998288, 0.8452392000035616, 0.8600684999983059, 0.877634600008605, 0.8994692999986, 0.9226022000075318, 0.9429384000104619, 0.9552283000084572, 0.9725190000026487, 0.9895837000076426, 1.0054802000086056, 1.0267305000015767, 1.04933880000317, 1.0706613000074867, 1.0870691000018269, 1.1048471000103746, 1.121077100004186, 1.1386186000017915, 1.1583686000085436, 1.184255000000121, 1.1941362000070512, 1.2233386000007158, 1.2467725000024075]",0.009529666640446521,1.2634431666519959,58.59174660001008,None,58.59174660001008,None,58.59174660001008,None,58.59174660001008,59.1115037999989,58.59174660001008,None,,,,,,,,,,,,,,,,,,,,,0,001,2020_Oct_14_1209,vm_20xx,2020.2.4,None,
0.3,-0.3,0,,,,,0,11,11,7,,,,,,,,,,,,,,,,,59.60568069999863,None,59.60568069999863,None,60.872037699999055,None,59.60568069999863,None,"[0.0, 0.0, 0.0, 0.0, 0.0, 0.0, 0.0, 0.0, 0.0, 0.0, 0.0, 0.0, 0.0, 0.0, 0.0, 0.0, 0.0, 0.0, 0.0, 0.0, 0.0, 0.0, 0.0, 0.0, 0.0, 0.0, 0.0, 0.0, 0.0, 0.0, 0.0, 0.0, 0.0, 0.0, 0.0, 0.0, 0.0, 0.0, 0.0, 0.0, 0.0, 0.0, 0.0, 0.0, 0.0, 0.0, 0.0, 0.0, 0.0, 0.0, 0.0, 0.0, 0.0, 0.0, 0.0, 0.0, 0.0, 0.0, 0.0, 0.0, 0.0, 0.0, 0.0, 0.0, 0.0, 0.0, 0.0, 0.0, 0.0, 0.0, 0.0, 0.0, 0.0, 0.0, 0.0, 0.0, 0.0]","[0.0, 0.0, 0.0, 0.0, 0.0, 0.0, 0.0, 0.0, 0.0, 0.0, 0.0, 0.0, 0.0, 0.0, 0.0, 0.0, 0.0, 0.0, 0.0, 0.0, 0.0, 0.0, 0.0, 0.0, 0.0, 0.0, 0.0, 0.0, 0.0, 0.0, 0.0, 0.0, 0.0, 0.0, 0.0, 0.0, 0.0, 0.0, 0.0, 0.0, 0.0, 0.0, 0.0, 0.0, 0.0, 0.0, 0.0, 0.0, 0.0, 0.0, 0.0, 0.0, 0.0, 0.0, 0.0, 0.0, 0.0, 0.0, 0.0, 0.0, 0.0, 0.0, 0.0, 0.0, 0.0, 0.0, 0.0, 0.0, 0.0, 0.0, 0.0, 0.0, 0.0, 0.0, 0.0, 0.0, 0.0]","[0, 0, 0, 0, 0, 0, 0, 0, 0, 0, 0, 0, 0, 0, 0, 0, 0, 0, 0, 0, 0, 0, 0, 0, 0, 0, 0, 0, 0, 0, 0, 0, 0, 0, 0, 0, 0, 0, 0, 0, 0, 0, 0, 0, 0, 0, 0, 0, 0, 0, 0, 0, 0, 0, 0, 0, 0, 0, 0, 0, 0, 0, 0, 0, 0, 0, 0, 0, 0, 0, 0, 0, 0, 0, 0, 0, 0]","[0, 0, 0, 0, 0, 0, 0, 0, 0, 0, 0, 0, 0, 0, 0, 0, 0, 0, 0, 0, 0, 0, 0, 0, 0, 0, 0, 0, 0, 0, 0, 0, 0, 0, 0, 0, 0, 0, 0, 0, 0, 0, 0, 0, 0, 0, 0, 0, 0, 0, 0, 0, 0, 0, 0, 0, 0, 0, 0, 0, 0, 0, 0, 0, 0, 0, 0, 0, 0, 0, 0, 0, 0, 0, 0, 0, 0]","[0, 0, 0, 0, 0, 0, 0, 0, 0, 0, 0, 0, 0, 0, 0, 0, 0, 0, 0, 0, 0, 0, 0, 0, 0, 0, 0, 0, 0, 0, 0, 0, 0, 0, 0, 0, 0, 0, 0, 0, 0, 0, 0, 0, 0, 0, 0, 0, 0, 0, 0, 0, 0, 0, 0, 0, 0, 0, 0, 0, 0, 0, 0, 0, 0, 0, 0, 0, 0, 0, 0, 0, 0, 0, 0, 0, 0]","[0.0008794000023044646, 0.02359289999003522, 0.029642800000146963, 0.04036259998974856, 0.05810850000125356, 0.08067369999480434, 0.0933904999983497, 0.1085495000006631, 0.12512149999383837, 0.14591739999013953, 0.17256520000228193, 0.1909548999974504, 0.20891370000026654, 0.22563390000141226, 0.24368679999315646, 0.2573800999962259, 0.2711702999949921, 0.2926846999907866, 0.30898079999315087, 0.33037339999282267, 0.34112509999249596, 0.35463449999224395, 0.3742197999963537, 0.39152269999613054, 0.4094055000023218, 0.42561039999418426, 0.44493969999894034, 0.4596154999890132, 0.4767139999894425, 0.49110990000190213, 0.5101674999896204, 0.5270287999883294, 0.5434564999886788, 0.5560433999926317, 0.5752597999962745, 0.5883675999939442, 0.6080385999957798, 0.6295768999989377, 0.6542698999983259, 0.662335399989388, 0.6758361999964109, 0.6917763999954332, 0.7059421000012662, 0.7214333000010811, 0.7392706999962684, 0.7570030999922892, 0.7762597999972058, 0.7897513999923831, 0.8105712999968091, 0.8227635999937775, 0.8377129000000423, 0.8567420999897877, 0.8736972999904538, 0.8942391000018688, 0.9141117999970447, 0.925980999993044, 0.9431261999998242, 0.9579569999914384, 0.9761013999959687, 0.9881068999966374, 1.0072259000007762, 1.0211809999891557, 1.039923699994688, 1.058064099997864, 1.0725412999890978, 1.0908265999896685, 1.105019299997366, 1.12436180000077, 1.1410681999986991, 1.1589276000013342, 1.179336000001058, 1.1976456999982474, 1.2192807999963406, 1.2400912000011886, 1.264953299993067, 1.272944099997403, 1.28792999999132]",0.009997966670198366,1.318335866657435,61.84031430000323,None,61.84031430000323,None,61.84031430000323,None,61.84031430000323,62.34379949999857,61.84031430000323,None,,,,,,,,,,,,,,,,,,,,,0,001,2020_Oct_14_1209,vm_20xx,2020.2.4,None,
-0.3,-0.3,0,,,,,0,12,12,14,,,,,,,,,,,,,,,,,62.874265000005835,None,62.874265000005835,None,63.83096030000888,None,62.874265000005835,None,"[0.0, 0.0, 0.0, 0.0, 0.0, 0.0, 0.0, 0.0, 0.0, 0.0, 0.0, 0.0, 0.0, 0.0, 0.0, 0.0, 0.0, 0.0, 0.0, 0.0, 0.0, 0.0, 0.0, 0.0, 0.0, 0.0, 0.0, 0.0, 0.0, 0.0, 0.0, 0.0, 0.0, 0.0, 0.0, 0.0, 0.0, 0.0, 0.0, 0.0, 0.0, 0.0, 0.0, 0.0, 0.0, 0.0, 0.0, 0.0, 0.0, 0.0]","[0.0, 0.0, 0.0, 0.0, 0.0, 0.0, 0.0, 0.0, 0.0, 0.0, 0.0, 0.0, 0.0, 0.0, 0.0, 0.0, 0.0, 0.0, 0.0, 0.0, 0.0, 0.0, 0.0, 0.0, 0.0, 0.0, 0.0, 0.0, 0.0, 0.0, 0.0, 0.0, 0.0, 0.0, 0.0, 0.0, 0.0, 0.0, 0.0, 0.0, 0.0, 0.0, 0.0, 0.0, 0.0, 0.0, 0.0, 0.0, 0.0, 0.0]","[0, 0, 0, 0, 0, 0, 0, 0, 0, 0, 0, 0, 0, 0, 0, 0, 0, 0, 0, 0, 0, 0, 0, 0, 0, 0, 0, 0, 0, 0, 0, 0, 0, 0, 0, 0, 0, 0, 0, 0, 0, 0, 0, 0, 0, 0, 0, 0, 0, 0]","[0, 0, 0, 0, 0, 0, 0, 0, 0, 0, 0, 0, 0, 0, 0, 0, 0, 0, 0, 0, 0, 0, 0, 0, 0, 0, 0, 0, 0, 0, 0, 0, 0, 0, 0, 0, 0, 0, 0, 0, 0, 0, 0, 0, 0, 0, 0, 0, 0, 0]","[0, 0, 0, 0, 0, 0, 0, 0, 0, 0, 0, 0, 0, 0, 0, 0, 0, 0, 0, 0, 0, 0, 0, 0, 0, 0, 0, 0, 0, 0, 0, 0, 0, 0, 0, 0, 0, 0, 0, 0, 0, 0, 0, 0, 0, 0, 0, 0, 0, 0]","[0.00020870000298600644, 0.020627699996111915, 0.0355379999964498, 0.05833889999485109, 0.07612779999908525, 0.09743369999341667, 0.1277605999930529, 0.13988180000160355, 0.16408839999348857, 0.1782169999933103, 0.20069719999446534, 0.21727159999136347, 0.24164079999900423, 0.2556408999953419, 0.2810983999952441, 0.2922947000042768, 0.31453839999448974, 0.35330999999132473, 0.3724138999969, 0.39471759999287315, 0.4039457000035327, 0.42793979999260046, 0.4581294999952661, 0.47606939999968745, 0.48990909999702126, 0.532582600004389, 0.5405797999992501, 0.5679658000008203, 0.5843426999927033, 0.6070629000023473, 0.6320638000033796, 0.6439734000014141, 0.6673032999970019, 0.6847926999907941, 0.7024993999948492, 0.7156022999988636, 0.7329156999912811, 0.7540817999979481, 0.769479800001136, 0.7860418999916874, 0.8004460999945877, 0.8174345000006724, 0.835437899993849, 0.8497406999958912, 0.863916699992842, 0.8912118000007467, 0.8997178999998141, 0.9162705999915488, 0.9341819999972358, 0.9522985999938101]",0.008297766660689376,0.9857418666651938,64.78682720000506,None,64.78682720000506,None,64.78682720000506,None,64.78682720000506,65.28845849999925,64.78682720000506,None,,,,,,,,,,,,,,,,,,,,,0,001,2020_Oct_14_1209,vm_20xx,2020.2.4,None,
-0.3,-0.3,0,,,,,0,13,13,10,,,,,,,,,,,,,,,,,65.79897630000778,None,65.79897630000778,None,66.48265430000902,None,65.79897630000778,None,"[0.0, 0.0, 0.0, 0.0, 0.0, 0.0, 0.0, 0.0, 0.0, 0.0, 0.0, 0.0, 0.0, 0.0, 0.0, 0.0, 0.0, 0.0, 0.0, 0.0, 0.0, 0.0, 0.0, 0.0, 0.0, 0.0, 0.0, 0.0, 0.0, 0.0, 0.0, 0.0, 0.0, 0.0, 0.0, 0.0, 0.0, 0.0]","[0.0, 0.0, 0.0, 0.0, 0.0, 0.0, 0.0, 0.0, 0.0, 0.0, 0.0, 0.0, 0.0, 0.0, 0.0, 0.0, 0.0, 0.0, 0.0, 0.0, 0.0, 0.0, 0.0, 0.0, 0.0, 0.0, 0.0, 0.0, 0.0, 0.0, 0.0, 0.0, 0.0, 0.0, 0.0, 0.0, 0.0, 0.0]","[0, 0, 0, 0, 0, 0, 0, 0, 0, 0, 0, 0, 0, 0, 0, 0, 0, 0, 0, 0, 0, 0, 0, 0, 0, 0, 0, 0, 0, 0, 0, 0, 0, 0, 0, 0, 0, 0]","[0, 0, 0, 0, 0, 0, 0, 0, 0, 0, 0, 0, 0, 0, 0, 0, 0, 0, 0, 0, 0, 0, 0, 0, 0, 0, 0, 0, 0, 0, 0, 0, 0, 0, 0, 0, 0, 0]","[0, 0, 0, 0, 0, 0, 0, 0, 0, 0, 0, 0, 0, 0, 0, 0, 0, 0, 0, 0, 0, 0, 0, 0, 0, 0, 0, 0, 0, 0, 0, 0, 0, 0, 0, 0, 0, 0]","[0.00022509999689646065, 0.023235200002091005, 0.04500420000113081, 0.05997909999859985, 0.07870790000015404, 0.09534939999866765, 0.1098024999955669, 0.1294525999983307, 0.14686059999803547, 0.16635539999697357, 0.1860884000052465, 0.21215839999786112, 0.24261879999539815, 0.25014639999426436, 0.272840499994345, 0.2967345000070054, 0.31032849999610335, 0.33223800000268966, 0.3505367000034312, 0.3760617999942042, 0.39390609999827575, 0.4131080999941332, 0.4390500000008615, 0.4627814999985276, 0.4766628999932436, 0.4994146999961231, 0.5100630999950226, 0.5351612999947974, 0.5441626999963773, 0.5619275000062771, 0.5838152000069385, 0.5936692999966908, 0.6106189999991329, 0.6294510000006994, 0.6440730000031181, 0.6686843000061344, 0.6888006999943173, 0.7069782000035048]",0.011568766669370234,0.7444088666670723,67.65491789999942,None,67.65491789999942,None,67.65491789999942,None,67.65491789999942,68.1737645000103,67.65491789999942,None,,,,,,,,,,,,,,,,,,,,,0,001,2020_Oct_14_1209,vm_20xx,2020.2.4,None,
-0.3,0.3,0,,,,,0,14,14,13,,,,,,,,,,,,,,,,,68.68546590000915,None,68.68546590000915,None,69.34367400000338,None,68.68546590000915,None,"[0.0, 0.0, 0.0, 0.0, 0.0, 0.0, 0.0, 0.0, 0.0, 0.0, 0.0, 0.0, 0.0, 0.0, 0.0, 0.0, 0.0, 0.0, 0.0, 0.0, 0.0, 0.0, 0.0, 0.0, 0.0, 0.0, 0.0, 0.0, 0.0, 0.0, 0.0, 0.0, 0.0, 0.0, 0.0, 0.0, 0.0]","[0.0, 0.0, 0.0, 0.0, 0.0, 0.0, 0.0, 0.0, 0.0, 0.0, 0.0, 0.0, 0.0, 0.0, 0.0, 0.0, 0.0, 0.0, 0.0, 0.0, 0.0, 0.0, 0.0, 0.0, 0.0, 0.0, 0.0, 0.0, 0.0, 0.0, 0.0, 0.0, 0.0, 0.0, 0.0, 0.0, 0.0]","[0, 0, 0, 0, 0, 0, 0, 0, 0, 0, 0, 0, 0, 0, 0, 0, 0, 0, 0, 0, 0, 0, 0, 0, 0, 0, 0, 0, 0, 0, 0, 0, 0, 0, 0, 0, 0]","[0, 0, 0, 0, 0, 0, 0, 0, 0, 0, 0, 0, 0, 0, 0, 0, 0, 0, 0, 0, 0, 0, 0, 0, 0, 0, 0, 0, 0, 0, 0, 0, 0, 0, 0, 0, 0]","[0, 0, 0, 0, 0, 0, 0, 0, 0, 0, 0, 0, 0, 0, 0, 0, 0, 0, 0, 0, 0, 0, 0, 0, 0, 0, 0, 0, 0, 0, 0, 0, 0, 0, 0, 0, 0]","[0.00030300000798888505, 0.018177600009948947, 0.0359937000030186, 0.05064840000704862, 0.06192780000856146, 0.086711900003138, 0.10515400000440422, 0.1295875000068918, 0.1384346000122605, 0.16513660000055097, 0.18219830001180526, 0.19906900000933092, 0.22305890001007356, 0.23502430001099128, 0.2565130000002682, 0.2674353000038536, 0.2888421000097878, 0.3070130000123754, 0.33237990000634454, 0.3472280999994837, 0.3620942000125069, 0.3942550000065239, 0.4046305000083521, 0.42953930000658147, 0.45620770000095945, 0.46535500000754837, 0.48823170000105165, 0.49722650001058355, 0.5157046000094851, 0.5329700000002049, 0.5504955000069458, 0.5716237000015099, 0.5831482000066899, 0.6032965000049444, 0.614924699999392, 0.6302358000102686, 0.6561755000002449]",0.0033173666743095964,0.6781600666727172,70.3402977000078,None,70.3402977000078,None,70.3402977000078,None,70.3402977000078,70.86283939999703,70.3402977000078,None,,,,,,,,,,,,,,,,,,,,,0,001,2020_Oct_14_1209,vm_20xx,2020.2.4,None,
-0.3,0.3,0,,,,,0,15,15,5,,,,,,,,,,,,,,,,,71.36194800000521,None,71.36194800000521,None,72.49687830000767,None,71.36194800000521,None,"[0.0, 0.0, 0.0, 0.0, 0.0, 0.0, 0.0, 0.0, 0.0, 0.0, 0.0, 0.0, 0.0, 0.0, 0.0, 0.0, 0.0, 0.0, 0.0, 0.0, 0.0, 0.0, 0.0, 0.0, 0.0, 0.0, 0.0, 0.0, 0.0, 0.0, 0.0, 0.0, 0.0, 0.0, 0.0, 0.0, 0.0, 0.0, 0.0, 0.0, 0.0, 0.0, 0.0, 0.0, 0.0, 0.0, 0.0, 0.0, 0.0, 0.0, 0.0, 0.0, 0.0, 0.0, 0.0, 0.0, 0.0, 0.0, 0.0, 0.0, 0.0, 0.0, 0.0, 0.0]","[0.0, 0.0, 0.0, 0.0, 0.0, 0.0, 0.0, 0.0, 0.0, 0.0, 0.0, 0.0, 0.0, 0.0, 0.0, 0.0, 0.0, 0.0, 0.0, 0.0, 0.0, 0.0, 0.0, 0.0, 0.0, 0.0, 0.0, 0.0, 0.0, 0.0, 0.0, 0.0, 0.0, 0.0, 0.0, 0.0, 0.0, 0.0, 0.0, 0.0, 0.0, 0.0, 0.0, 0.0, 0.0, 0.0, 0.0, 0.0, 0.0, 0.0, 0.0, 0.0, 0.0, 0.0, 0.0, 0.0, 0.0, 0.0, 0.0, 0.0, 0.0, 0.0, 0.0, 0.0]","[0, 0, 0, 0, 0, 0, 0, 0, 0, 0, 0, 0, 0, 0, 0, 0, 0, 0, 0, 0, 0, 0, 0, 0, 0, 0, 0, 0, 0, 0, 0, 0, 0, 0, 0, 0, 0, 0, 0, 0, 0, 0, 0, 0, 0, 0, 0, 0, 0, 0, 0, 0, 0, 0, 0, 0, 0, 0, 0, 0, 0, 0, 0, 0]","[0, 0, 0, 0, 0, 0, 0, 0, 0, 0, 0, 0, 0, 0, 0, 0, 0, 0, 0, 0, 0, 0, 0, 0, 0, 0, 0, 0, 0, 0, 0, 0, 0, 0, 0, 0, 0, 0, 0, 0, 0, 0, 0, 0, 0, 0, 0, 0, 0, 0, 0, 0, 0, 0, 0, 0, 0, 0, 0, 0, 0, 0, 0, 0]","[0, 0, 0, 0, 0, 0, 0, 0, 0, 0, 0, 0, 0, 0, 0, 0, 0, 0, 0, 0, 0, 0, 0, 0, 0, 0, 0, 0, 0, 0, 0, 0, 0, 0, 0, 0, 0, 0, 0, 0, 0, 0, 0, 0, 0, 0, 0, 0, 0, 0, 0, 0, 0, 0, 0, 0, 0, 0, 0, 0, 0, 0, 0, 0]","[0.00016870000399649143, 0.017185099990456365, 0.04052419999788981, 0.0572902999992948, 0.0728464999992866, 0.09283809999760706, 0.10637320000387263, 0.1287270000029821, 0.14126009999017697, 0.16477999999187887, 0.18953679999685846, 0.20473820000188425, 0.21903769999335054, 0.24434330000076443, 0.25715150000178255, 0.28167159999429714, 0.2931357999914326, 0.3202102999930503, 0.33528250000381377, 0.35607270000036806, 0.3681665000040084, 0.38898499999777414, 0.4199557999963872, 0.43386189999000635, 0.4542765999940457, 0.477880999998888, 0.48902999999700114, 0.5031243999983417, 0.517289700001129, 0.5423467999935383, 0.5521918000013102, 0.5754118000040762, 0.5995796999923186, 0.6220911999989767, 0.634989799989853, 0.6528594999981578, 0.673236899994663, 0.6968540999951074, 0.7048022999952082, 0.7203169999993406, 0.7458137999929022, 0.7565295999957016, 0.7703100999933667, 0.7892422000004444, 0.8009929999971064, 0.820572099997662, 0.8396224000025541, 0.8594010999950115, 0.8699244000017643, 0.8946964999922784, 0.9034274000005098, 0.9203451999928802, 0.9369849999930011, 0.9536029000009876, 0.9754630999959772, 0.989549599995371, 1.0232186999928672, 1.0389083999907598, 1.0588315999921178, 1.0675917999906233, 1.0829457999934675, 1.098973300002399, 1.1163085000007413, 1.1333408999926178]",0.008264166666776873,1.159913866664283,73.45290060000843,None,73.45290060000843,None,73.45290060000843,None,73.45290060000843,73.9606036000041,73.45290060000843,None,,,,,,,,,,,,,,,,,,,,,0,001,2020_Oct_14_1209,vm_20xx,2020.2.4,None,
,,,,,,,,,,,,,,,,,,,,,,,,,,,,,,,,,,,,,,,,,,,,,,,,,,,,,74.46228970000811,None,0.25884906665305607,None,,,,,,,,,,,,,,,,,0,001,2020_Oct_14_1209,vm_20xx,2020.2.4,None,
,,,,,,,,,,,,,,,,,,,,,,,,,,,,,,,,,,,,,,,,,,,,,,,,,,,,,,,,,75.84038000000874,None,75.84038000000874,None,76.60100480000256,None,75.84038000000874,None,"[0.0, 0.0, 0.0, 0.0, 0.0, 0.0, 0.0, 0.0, 0.0, 0.0, 0.0, 0.0, 0.0, 0.0, 0.0, 0.0, 0.0, 0.0, 0.0, 0.0, 0.0, 0.0, 0.0, 0.0, 0.0, 0.0, 0.0, 0.0, 0.0, 0.0, 0.0, 0.0, 0.0, 0.0, 0.0, 0.0, 0.0, 0.0, -0.07592592592592592, -0.11203703703703703, -0.18611111111111112, -0.24259259259259258, -0.2564814814814815, -0.29259259259259257, -0.3101851851851852, -0.3435185185185185, -0.3509259259259259, -0.3574074074074074]","[0.0, 0.0, 0.0, 0.0, 0.0, 0.0, 0.0, 0.0, 0.0, 0.0, 0.0, 0.0, 0.0, 0.0, 0.0, 0.0, 0.0, 0.0, 0.0, 0.0, 0.0, 0.0, 0.0, 0.0, 0.0, 0.0, 0.0, 0.0, 0.0, 0.0, 0.0, 0.0, 0.0, 0.0, 0.0, 0.0, 0.0, 0.0, 0.03888888888888889, 0.05648148148148148, 0.10185185185185185, 0.14629629629629629, 0.15833333333333333, 0.19444444444444445, 0.21388888888888888, 0.25, 0.25555555555555554, 0.2638888888888889]","[0, 0, 0, 0, 0, 0, 0, 0, 0, 0, 0, 0, 0, 0, 0, 0, 0, 0, 0, 0, 0, 0, 0, 0, 0, 1, 1, 1, 1, 1, 1, 1, 1, 1, 1, 1, 1, 1, 1, 1, 1, 1, 1, 1, 1, 1, 1, 1]","[0, 0, 0, 0, 0, 0, 0, 0, 0, 0, 0, 0, 0, 0, 0, 0, 0, 0, 0, 0, 0, 0, 0, 0, 0, 0, 0, 0, 0, 0, 0, 0, 0, 0, 0, 0, 0, 0, 0, 0, 0, 0, 0, 0, 0, 0, 0, 0]","[0, 0, 0, 0, 0, 0, 0, 0, 0, 0, 0, 0, 0, 0, 0, 0, 0, 0, 0, 0, 0, 0, 0, 0, 0, 0, 0, 0, 0, 0, 0, 0, 0, 0, 0, 0, 0, 0, 0, 0, 0, 0, 0, 0, 0, 0, 0, 0]","[0.0012132999981986359, 0.023700200006715022, 0.04092680000758264, 0.06091680000827182, 0.08308580001175869, 0.09881770001084078, 0.10935920001065824, 0.13277940000989474, 0.14354679999814834, 0.16734200000064448, 0.1952373000094667, 0.21036570001160726, 0.22684650000883266, 0.2488084000069648, 0.260468899999978, 0.2866175000090152, 0.31499720001011156, 0.32438780000666156, 0.34683680000307504, 0.35951190000923816, 0.37469050000072457, 0.3968887000082759, 0.4145732000033604, 0.44100360000447836, 0.45894730000873096, 0.4758221000083722, 0.49189900000055786, 0.5092064000054961, 0.5259836000041105, 0.55082720000064, 0.5597191999986535, 0.5798668000061298, 0.5938693000061903, 0.6145726000104332, 0.6246749999991152, 0.6378366999997525, 0.6573915000044508, 0.6756203999975696, 0.7005620999989333, 0.7155620999983512, 0.7390995000023395, 0.7627457000053255, 0.7766594999993686, 0.8018261000106577, 0.81794059999811, 0.84390780000831, 0.8572512000100687, 0.8812082000076771]",0.7777954333578236,None,,,,,,,
