target_x,target_y,rotation,trials.thisRepN,trials.thisTrialN,trials.thisN,trials.thisIndex,baseline_trials.thisRepN,baseline_trials.thisTrialN,baseline_trials.thisN,baseline_trials.thisIndex,blocks.thisRepN,blocks.thisTrialN,blocks.thisN,blocks.thisIndex,block_trials.thisRepN,block_trials.thisTrialN,block_trials.thisN,block_trials.thisIndex,transfer_trials.thisRepN,transfer_trials.thisTrialN,transfer_trials.thisN,transfer_trials.thisIndex,Welcome.started,Welcome.stopped,mouse.started,mouse.stopped,text_3.started,text_3.stopped,mouse_6.started,mouse_6.stopped,baseline_enclosing_1.started,baseline_enclosing_1.stopped,baseline_enclosing.started,baseline_enclosing.stopped,baseline_target.started,baseline_target.stopped,baseline_fixation.started,baseline_fixation.stopped,baseline_mouse.x,baseline_mouse.y,baseline_mouse.leftButton,baseline_mouse.midButton,baseline_mouse.rightButton,baseline_mouse.time,baseline_mouse.started,baseline_mouse.stopped,baseline_enclosing_feedback_1.started,baseline_enclosing_feedback_1.stopped,baseline_enclosing_feedback.started,baseline_enclosing_feedback.stopped,baseline_target_feedback.started,baseline_target_feedback.stopped,baseline_fixation_feedback.started,baseline_fixation_feedback.stopped,baseline_score_text.started,baseline_score_text.stopped,text_2.started,text_2.stopped,mouse_3.started,mouse_3.stopped,rotated_enclosing_1.started,rotated_enclosing_1.stopped,rotated_enclosing.started,rotated_enclosing.stopped,rotated_target.started,rotated_target.stopped,rotated_fixation.started,rotated_fixation.stopped,rotated_mouse.x,rotated_mouse.y,rotated_mouse.leftButton,rotated_mouse.midButton,rotated_mouse.rightButton,rotated_mouse.time,rotated_mouse.started,rotated_mouse.stopped,rotated_enclosing_feedback_1.started,rotated_enclosing_feedback_1.stopped,rotated_enclosing_feedback.started,rotated_enclosing_feedback.stopped,rotated_target_feedback.started,rotated_target_feedback.stopped,rotated_fixation_feedback.started,rotated_fixation_feedback.stopped,rotated_score_text.started,rotated_score_text.stopped,rotated_breaks.started,rotated_breaks.stopped,mouse_5.started,mouse_5.stopped,transfer_enclosing_1.started,transfer_enclosing_1.stopped,transfer_enclosing.started,transfer_enclosing.stopped,transfer_target.started,transfer_target.stopped,transfer_fixation.started,transfer_fixation.stopped,transfer_mouse.x,transfer_mouse.y,transfer_mouse.leftButton,transfer_mouse.midButton,transfer_mouse.rightButton,transfer_mouse.time,transfer_mouse.started,transfer_mouse.stopped,transfer_enclosing_feedback_1.started,transfer_enclosing_feedback_1.stopped,transfer_enclosing_feedback.started,transfer_enclosing_feedback.stopped,transfer_target_feedback.started,transfer_target_feedback.stopped,transfer_fixation_feedback.started,transfer_fixation_feedback.stopped,text_4.started,text_4.stopped,participant,session,date,expName,psychopyVersion,frameRate,
,,,,,,,,,,,,,,,,,,,,,,,12.505161799999769,None,0.005178520004847087,None,,,,,,,,,,,,,,,,,,,,,,,,,,,,,,,,,,,,,,,,,,,,,,,,,,,,,,,,,,,,,,,,,,,,,,,,,,,,,,,,,,,,,,,,,,,0,001,2020_Oct_14_1346,vm_20xx,2020.2.4,60.10980859650604,
,,,,,,,,,,,,,,,,,,,,,,,,,,,13.285662700000103,None,1.0059973899915349,None,,,,,,,,,,,,,,,,,,,,,,,,,,,,,,,,,,,,,,,,,,,,,,,,,,,,,,,,,,,,,,,,,,,,,,,,,,,,,,,,,,,,,,,0,001,2020_Oct_14_1346,vm_20xx,2020.2.4,60.10980859650604,
-0.3,0.3,0,,,,,0,0,0,1,,,,,,,,,,,,,,,,,,,,,14.628762000007555,None,14.628762000007555,None,15.816869600006612,None,14.628762000007555,None,"[-0.12222222222222222, 0.0, 0.0, 0.0, 0.0, 0.0, 0.0, 0.0, 0.0, 0.0, 0.0, 0.0, 0.0, 0.0, 0.0, 0.0, 0.0, 0.0, 0.0, 0.0, 0.0, 0.0, 0.0, 0.0, 0.0, 0.0, 0.0, 0.0, 0.0, 0.0, 0.0, 0.0, 0.0, 0.0, 0.0, 0.0, 0.0, 0.0, 0.0, 0.0, 0.0, 0.0, 0.0, 0.0, 0.0, 0.0, 0.0, 0.0, 0.0, 0.0, 0.0, 0.0, 0.0, 0.0, 0.0, 0.0, 0.0, 0.0, 0.0, 0.0, 0.0, 0.0, 0.0, 0.0, 0.0, 0.0, 0.0, 0.0, 0.0, 0.0, 0.0, 0.0]","[0.08518518518518518, 0.0, 0.0, 0.0, 0.0, 0.0, 0.0, 0.0, 0.0, 0.0, 0.0, 0.0, 0.0, 0.0, 0.0, 0.0, 0.0, 0.0, 0.0, 0.0, 0.0, 0.0, 0.0, 0.0, 0.0, 0.0, 0.0, 0.0, 0.0, 0.0, 0.0, 0.0, 0.0, 0.0, 0.0, 0.0, 0.0, 0.0, 0.0, 0.0, 0.0, 0.0, 0.0, 0.0, 0.0, 0.0, 0.0, 0.0, 0.0, 0.0, 0.0, 0.0, 0.0, 0.0, 0.0, 0.0, 0.0, 0.0, 0.0, 0.0, 0.0, 0.0, 0.0, 0.0, 0.0, 0.0, 0.0, 0.0, 0.0, 0.0, 0.0, 0.0]","[1, 0, 0, 0, 0, 0, 0, 0, 0, 0, 0, 0, 0, 0, 0, 0, 0, 0, 0, 0, 0, 0, 0, 0, 0, 0, 0, 0, 0, 0, 0, 0, 0, 0, 0, 0, 0, 0, 0, 0, 0, 0, 0, 0, 0, 0, 0, 0, 0, 0, 0, 0, 0, 0, 0, 0, 0, 0, 0, 0, 0, 0, 0, 0, 0, 0, 0, 0, 0, 0, 0, 0]","[0, 0, 0, 0, 0, 0, 0, 0, 0, 0, 0, 0, 0, 0, 0, 0, 0, 0, 0, 0, 0, 0, 0, 0, 0, 0, 0, 0, 0, 0, 0, 0, 0, 0, 0, 0, 0, 0, 0, 0, 0, 0, 0, 0, 0, 0, 0, 0, 0, 0, 0, 0, 0, 0, 0, 0, 0, 0, 0, 0, 0, 0, 0, 0, 0, 0, 0, 0, 0, 0, 0, 0]","[0, 0, 0, 0, 0, 0, 0, 0, 0, 0, 0, 0, 0, 0, 0, 0, 0, 0, 0, 0, 0, 0, 0, 0, 0, 0, 0, 0, 0, 0, 0, 0, 0, 0, 0, 0, 0, 0, 0, 0, 0, 0, 0, 0, 0, 0, 0, 0, 0, 0, 0, 0, 0, 0, 0, 0, 0, 0, 0, 0, 0, 0, 0, 0, 0, 0, 0, 0, 0, 0, 0, 0]","[0.00028049999673385173, 0.013862099993275478, 0.033792399990488775, 0.05311579999397509, 0.06998229998862371, 0.08616890000121202, 0.10279729998728726, 0.11949759999697562, 0.13647089998994488, 0.152617999992799, 0.17043899999407586, 0.18625499999325257, 0.202692399994703, 0.21940539999923203, 0.23608629999216646, 0.25266449998889584, 0.26904389999981504, 0.28723069999250583, 0.3028053999878466, 0.31972529999620747, 0.33601729999645613, 0.35254779999377206, 0.37017729999206495, 0.3860576000006404, 0.4022707999974955, 0.41728650000004563, 0.4339748999918811, 0.45052439998835325, 0.4668641999887768, 0.48354079999262467, 0.5022784999891883, 0.5187077000009594, 0.5352748000004794, 0.5523220999893965, 0.5695660999917891, 0.5857175999990432, 0.6042617999919457, 0.6205703999876278, 0.6364545999967959, 0.6521704999904614, 0.6699263999907998, 0.6855754999996861, 0.7021870999888051, 0.7192952999903355, 0.7354532999888761, 0.7520802999933949, 0.7687757999956375, 0.785369899997022, 0.8019406999956118, 0.818745199998375, 0.8353788999957033, 0.8520172999997158, 0.868567699988489, 0.8853506000014022, 0.9018080999958329, 0.9186397000012221, 0.9356368000007933, 0.9529763999889838, 0.968580100001418, 0.9852459999965504, 1.0019667000015033, 1.0198908999882406, 1.0355165999935707, 1.0516780999896582, 1.0684296999970684, 1.0858021999883931, 1.1031099999963772, 1.1184077999932924, 1.135119599988684, 1.151738699991256, 1.1683918999915477, 1.185150799996336]",0.002156329996068962,1.203275029998622,16.7205518999981,None,16.7205518999981,None,16.7205518999981,None,16.7205518999981,17.23203359999752,16.7205518999981,None,,,,,,,,,,,,,,,,,,,,,,,,,,,,,,,,,,,,,,,,,,,,,,,,,,,,,,,,,,,,,0,001,2020_Oct_14_1346,vm_20xx,2020.2.4,60.10980859650604,
0.3,0.3,0,,,,,0,1,1,8,,,,,,,,,,,,,,,,,,,,,17.702596799994353,None,17.702596799994353,None,18.31457820000651,None,17.702596799994353,None,"[0.0, 0.0, 0.0, 0.0, 0.0, 0.0, 0.0, 0.0, 0.0, 0.0, 0.0, 0.0, 0.0, 0.0, 0.0, 0.0, 0.0, 0.0, 0.0, 0.0, 0.0, 0.0, 0.0, 0.0, 0.0, 0.0, 0.0, 0.0, 0.0, 0.0, 0.0, 0.0, 0.0, 0.0, 0.0, 0.0, 0.0, 0.0]","[0.0, 0.0, 0.0, 0.0, 0.0, 0.0, 0.0, 0.0, 0.0, 0.0, 0.0, 0.0, 0.0, 0.0, 0.0, 0.0, 0.0, 0.0, 0.0, 0.0, 0.0, 0.0, 0.0, 0.0, 0.0, 0.0, 0.0, 0.0, 0.0, 0.0, 0.0, 0.0, 0.0, 0.0, 0.0, 0.0, 0.0, 0.0]","[0, 0, 0, 0, 0, 0, 0, 0, 0, 0, 0, 0, 0, 0, 0, 0, 0, 0, 0, 0, 0, 0, 0, 0, 0, 0, 0, 0, 0, 0, 0, 0, 0, 0, 0, 0, 0, 0]","[0, 0, 0, 0, 0, 0, 0, 0, 0, 0, 0, 0, 0, 0, 0, 0, 0, 0, 0, 0, 0, 0, 0, 0, 0, 0, 0, 0, 0, 0, 0, 0, 0, 0, 0, 0, 0, 0]","[0, 0, 0, 0, 0, 0, 0, 0, 0, 0, 0, 0, 0, 0, 0, 0, 0, 0, 0, 0, 0, 0, 0, 0, 0, 0, 0, 0, 0, 0, 0, 0, 0, 0, 0, 0, 0, 0]","[0.0003138999891234562, 0.013536999991629273, 0.027600499990512617, 0.043065599995316006, 0.05960959999356419, 0.07630339999741409, 0.09309009999560658, 0.10954849999689031, 0.12651499999628868, 0.14301159999740776, 0.1606411999964621, 0.17654319999564905, 0.1929896999936318, 0.2097205999889411, 0.22676249999494758, 0.24296989999129437, 0.25954329999512993, 0.27627959998790175, 0.2928451999905519, 0.30921639999723993, 0.32642939999641385, 0.34261059999698773, 0.3594287999876542, 0.376091300000553, 0.39282039999670815, 0.40981399999873247, 0.42597559999558143, 0.44268879998708144, 0.4592872999928659, 0.47584049998840783, 0.492522899992764, 0.510045999995782, 0.5259065999998711, 0.5425517999974545, 0.5591697999916505, 0.5760346999886679, 0.5925122999906307, 0.6092800999904284]",0.009025389997987077,0.6342737899976783,19.19001720000233,None,19.19001720000233,None,19.19001720000233,None,19.19001720000233,19.696675800005323,19.19001720000233,None,,,,,,,,,,,,,,,,,,,,,,,,,,,,,,,,,,,,,,,,,,,,,,,,,,,,,,,,,,,,,0,001,2020_Oct_14_1346,vm_20xx,2020.2.4,60.10980859650604,
-0.3,-0.3,0,,,,,0,2,2,6,,,,,,,,,,,,,,,,,,,,,20.182373400006327,None,20.182373400006327,None,21.02865120000206,None,20.182373400006327,None,"[0.0, 0.0, 0.0, 0.0, 0.0, 0.0, 0.0, 0.0, 0.0, 0.0, 0.0, 0.0, 0.0, 0.0, 0.0, 0.0, 0.0, 0.0, 0.0, 0.0, 0.0, 0.0, 0.0, 0.0, 0.0, 0.0, 0.0, 0.0, 0.0, 0.0, 0.0, 0.0, 0.0, 0.0, 0.0, 0.0, 0.0, 0.0, 0.0, 0.0, 0.0, 0.0, 0.0, 0.0, 0.0, 0.0, 0.0, 0.0, 0.0, 0.0, 0.0, 0.0]","[0.0, 0.0, 0.0, 0.0, 0.0, 0.0, 0.0, 0.0, 0.0, 0.0, 0.0, 0.0, 0.0, 0.0, 0.0, 0.0, 0.0, 0.0, 0.0, 0.0, 0.0, 0.0, 0.0, 0.0, 0.0, 0.0, 0.0, 0.0, 0.0, 0.0, 0.0, 0.0, 0.0, 0.0, 0.0, 0.0, 0.0, 0.0, 0.0, 0.0, 0.0, 0.0, 0.0, 0.0, 0.0, 0.0, 0.0, 0.0, 0.0, 0.0, 0.0, 0.0]","[0, 0, 0, 0, 0, 0, 0, 0, 0, 0, 0, 0, 0, 0, 0, 0, 0, 0, 0, 0, 0, 0, 0, 0, 0, 0, 0, 0, 0, 0, 0, 0, 0, 0, 0, 0, 0, 0, 0, 0, 0, 0, 0, 0, 0, 0, 0, 0, 0, 0, 0, 0]","[0, 0, 0, 0, 0, 0, 0, 0, 0, 0, 0, 0, 0, 0, 0, 0, 0, 0, 0, 0, 0, 0, 0, 0, 0, 0, 0, 0, 0, 0, 0, 0, 0, 0, 0, 0, 0, 0, 0, 0, 0, 0, 0, 0, 0, 0, 0, 0, 0, 0, 0, 0]","[0, 0, 0, 0, 0, 0, 0, 0, 0, 0, 0, 0, 0, 0, 0, 0, 0, 0, 0, 0, 0, 0, 0, 0, 0, 0, 0, 0, 0, 0, 0, 0, 0, 0, 0, 0, 0, 0, 0, 0, 0, 0, 0, 0, 0, 0, 0, 0, 0, 0, 0, 0]","[0.0003215999895473942, 0.014265399993746541, 0.02908529998967424, 0.04461969999829307, 0.06112539999594446, 0.07791229999565985, 0.09451090000220574, 0.11094659999071155, 0.12776979999034666, 0.14443699999537785, 0.16111479999381118, 0.17763589999231044, 0.1949350999930175, 0.21105089999036863, 0.22782759999972768, 0.24421589999110438, 0.26103280000097584, 0.27796729998954106, 0.2942454000003636, 0.310959800001001, 0.32756890000018757, 0.3442689999938011, 0.36118429999623913, 0.3775640999956522, 0.3941208999895025, 0.4108031999930972, 0.4274001000012504, 0.44422009999107104, 0.46157109999330714, 0.47752489999402314, 0.4942878000001656, 0.5106414999900153, 0.5280096999922534, 0.544103799998993, 0.5608461999945575, 0.5773480999923777, 0.5938956999889342, 0.6105949999910081, 0.6274067999911495, 0.6440848999918671, 0.6608354999916628, 0.6774393999949098, 0.6939698999922257, 0.7104522000008728, 0.7271794999978738, 0.7453853999904823, 0.7603560999996262, 0.7772119000001112, 0.7938189999986207, 0.8106524999893736, 0.8281795999937458, 0.8439058999938425]",0.01096059002156835,0.8707392900105333,21.71880499999679,None,21.71880499999679,None,21.71880499999679,None,21.71880499999679,22.227575900004013,21.71880499999679,None,,,,,,,,,,,,,,,,,,,,,,,,,,,,,,,,,,,,,,,,,,,,,,,,,,,,,,,,,,,,,0,001,2020_Oct_14_1346,vm_20xx,2020.2.4,60.10980859650604,
-0.3,-0.3,0,,,,,0,3,3,14,,,,,,,,,,,,,,,,,,,,,22.72960069999681,None,22.72960069999681,None,23.542982500002836,None,22.72960069999681,None,"[0.0, 0.0, 0.0, 0.0, 0.0, 0.0, 0.0, 0.0, 0.0, 0.0, 0.0, 0.0, 0.0, 0.0, 0.0, 0.0, 0.0, 0.0, 0.0, 0.0, 0.0, 0.0, 0.0, 0.0, 0.0, 0.0, 0.0, 0.0, 0.0, 0.0, 0.0, 0.0, 0.0, 0.0, 0.0, 0.0, 0.0, 0.0, 0.0, 0.0, 0.0, 0.0, 0.0, 0.0, 0.0, 0.0, 0.0, 0.0, 0.0, 0.0, 0.0]","[0.0, 0.0, 0.0, 0.0, 0.0, 0.0, 0.0, 0.0, 0.0, 0.0, 0.0, 0.0, 0.0, 0.0, 0.0, 0.0, 0.0, 0.0, 0.0, 0.0, 0.0, 0.0, 0.0, 0.0, 0.0, 0.0, 0.0, 0.0, 0.0, 0.0, 0.0, 0.0, 0.0, 0.0, 0.0, 0.0, 0.0, 0.0, 0.0, 0.0, 0.0, 0.0, 0.0, 0.0, 0.0, 0.0, 0.0, 0.0, 0.0, 0.0, 0.0]","[0, 0, 0, 0, 0, 0, 0, 0, 0, 0, 0, 0, 0, 0, 0, 0, 0, 0, 0, 0, 0, 0, 0, 0, 0, 0, 0, 0, 0, 0, 0, 0, 0, 0, 0, 0, 0, 0, 0, 0, 0, 0, 0, 0, 0, 0, 0, 0, 0, 0, 0]","[0, 0, 0, 0, 0, 0, 0, 0, 0, 0, 0, 0, 0, 0, 0, 0, 0, 0, 0, 0, 0, 0, 0, 0, 0, 0, 0, 0, 0, 0, 0, 0, 0, 0, 0, 0, 0, 0, 0, 0, 0, 0, 0, 0, 0, 0, 0, 0, 0, 0, 0]","[0, 0, 0, 0, 0, 0, 0, 0, 0, 0, 0, 0, 0, 0, 0, 0, 0, 0, 0, 0, 0, 0, 0, 0, 0, 0, 0, 0, 0, 0, 0, 0, 0, 0, 0, 0, 0, 0, 0, 0, 0, 0, 0, 0, 0, 0, 0, 0, 0, 0, 0]","[0.00031460000900551677, 0.014607300006900914, 0.028909100001328625, 0.04537440001149662, 0.0618047000025399, 0.07860000000800937, 0.0952438000094844, 0.11172549999901094, 0.12858230000711046, 0.1451292999990983, 0.16190150000329595, 0.17846710000594612, 0.1957956000114791, 0.211623299997882, 0.22836890000326093, 0.2452945999975782, 0.2616167000087444, 0.2782733000058215, 0.29496620000281837, 0.31159959999786224, 0.3284002000000328, 0.3450299000105588, 0.3615709000005154, 0.37839690000691917, 0.3949303000117652, 0.41145840000535827, 0.4282338000048185, 0.4453219999995781, 0.46160180000879336, 0.47817200000281446, 0.49530890000460204, 0.5113768000010168, 0.5280319000012241, 0.5446386000112398, 0.5614638000115519, 0.5780368999985512, 0.5946796000062022, 0.6113212000054773, 0.6280366999999387, 0.6446212000009837, 0.6611179000028642, 0.6781131000025198, 0.6946899000031408, 0.7117009000066901, 0.7278447999997297, 0.7446863000077428, 0.7613606000086293, 0.7782823000015924, 0.7945729000057327, 0.8112040999985766, 0.8278728000004776]",0.011027890010154806,0.8547984900069423,24.417548800003715,None,24.417548800003715,None,24.417548800003715,None,24.417548800003715,24.92504590000317,24.417548800003715,None,,,,,,,,,,,,,,,,,,,,,,,,,,,,,,,,,,,,,,,,,,,,,,,,,,,,,,,,,,,,,0,001,2020_Oct_14_1346,vm_20xx,2020.2.4,60.10980859650604,
-0.3,0.3,0,,,,,0,4,4,13,,,,,,,,,,,,,,,,,,,,,25.427527000007103,None,25.427527000007103,None,26.456860999998753,None,25.427527000007103,None,"[0.0, 0.0, 0.0, 0.0, 0.0, 0.0, 0.0, 0.0, 0.0, 0.0, 0.0, 0.0, 0.0, 0.0, 0.0, 0.0, 0.0, 0.0, 0.0, 0.0, 0.0, 0.0, 0.0, 0.0, 0.0, 0.0, 0.0, 0.0, 0.0, 0.0, 0.0, 0.0, 0.0, 0.0, 0.0, 0.0, 0.0, 0.0, 0.0, 0.0, 0.0, 0.0, 0.0, 0.0, 0.0, 0.0, 0.0, 0.0, 0.0, 0.0, 0.0, 0.0, 0.0, 0.0, 0.0, 0.0, 0.0, 0.0, 0.0, 0.0, 0.0, 0.0, 0.0]","[0.0, 0.0, 0.0, 0.0, 0.0, 0.0, 0.0, 0.0, 0.0, 0.0, 0.0, 0.0, 0.0, 0.0, 0.0, 0.0, 0.0, 0.0, 0.0, 0.0, 0.0, 0.0, 0.0, 0.0, 0.0, 0.0, 0.0, 0.0, 0.0, 0.0, 0.0, 0.0, 0.0, 0.0, 0.0, 0.0, 0.0, 0.0, 0.0, 0.0, 0.0, 0.0, 0.0, 0.0, 0.0, 0.0, 0.0, 0.0, 0.0, 0.0, 0.0, 0.0, 0.0, 0.0, 0.0, 0.0, 0.0, 0.0, 0.0, 0.0, 0.0, 0.0, 0.0]","[0, 0, 0, 0, 0, 0, 0, 0, 0, 0, 0, 0, 0, 0, 0, 0, 0, 0, 0, 0, 0, 0, 0, 0, 0, 0, 0, 0, 0, 0, 0, 0, 0, 0, 0, 0, 0, 0, 0, 0, 0, 0, 0, 0, 0, 0, 0, 0, 0, 0, 0, 0, 0, 0, 0, 0, 0, 0, 0, 0, 0, 0, 0]","[0, 0, 0, 0, 0, 0, 0, 0, 0, 0, 0, 0, 0, 0, 0, 0, 0, 0, 0, 0, 0, 0, 0, 0, 0, 0, 0, 0, 0, 0, 0, 0, 0, 0, 0, 0, 0, 0, 0, 0, 0, 0, 0, 0, 0, 0, 0, 0, 0, 0, 0, 0, 0, 0, 0, 0, 0, 0, 0, 0, 0, 0, 0]","[0, 0, 0, 0, 0, 0, 0, 0, 0, 0, 0, 0, 0, 0, 0, 0, 0, 0, 0, 0, 0, 0, 0, 0, 0, 0, 0, 0, 0, 0, 0, 0, 0, 0, 0, 0, 0, 0, 0, 0, 0, 0, 0, 0, 0, 0, 0, 0, 0, 0, 0, 0, 0, 0, 0, 0, 0, 0, 0, 0, 0, 0, 0]","[0.0003142000059597194, 0.01459150000300724, 0.028647600003750995, 0.04480640000838321, 0.061622000008355826, 0.07795659999828786, 0.09457680000923574, 0.11143160000210628, 0.1279114000062691, 0.14453380000486504, 0.16131760001007933, 0.1777835000102641, 0.19456800000625663, 0.21221179999702144, 0.22787570000218693, 0.24439710000297055, 0.2613520000013523, 0.27771550000761636, 0.29470350001065526, 0.31166940000548493, 0.3277903999987757, 0.34451219999755267, 0.36117940000258386, 0.37765130000479985, 0.39431709999917075, 0.41114170000946615, 0.42770590000145603, 0.44426830000884365, 0.46099960000719875, 0.47745400000712834, 0.49436660000355914, 0.5108774999971502, 0.5274642000003951, 0.544187100007548, 0.560811500006821, 0.5774605000042357, 0.5942127000016626, 0.6107946999982232, 0.627432499997667, 0.6451899000094272, 0.6608037999976659, 0.6773652999982005, 0.6941012000024784, 0.7106580999970902, 0.7273579000029713, 0.7440177000098629, 0.760792400003993, 0.7773118000040995, 0.7940175999974599, 0.8107100000052014, 0.8272332000051392, 0.8438819000002695, 0.8610580000095069, 0.8771828000026289, 0.8938041000074008, 0.9106450999970548, 0.9271847000054549, 0.943927000000258, 0.9604840000101831, 0.9770928000070853, 0.9939086000085808, 1.0104732000036165, 1.0275071000069147]",0.010607889998937026,1.053701689990703,27.326918899998418,None,27.326918899998418,None,27.326918899998418,None,27.326918899998418,27.838730100003886,27.326918899998418,None,,,,,,,,,,,,,,,,,,,,,,,,,,,,,,,,,,,,,,,,,,,,,,,,,,,,,,,,,,,,,0,001,2020_Oct_14_1346,vm_20xx,2020.2.4,60.10980859650604,
-0.3,0.3,0,,,,,0,5,5,5,,,,,,,,,,,,,,,,,,,,,28.324618700004066,None,28.324618700004066,None,29.08782600000268,None,28.324618700004066,None,"[0.0, 0.0, 0.0, 0.0, 0.0, 0.0, 0.0, 0.0, 0.0, 0.0, 0.0, 0.0, 0.0, 0.0, 0.0, 0.0, 0.0, 0.0, 0.0, 0.0, 0.0, 0.0, 0.0, 0.0, 0.0, 0.0, 0.0, 0.0, 0.0, 0.0, 0.0, 0.0, 0.0, 0.0, 0.0, 0.0, 0.0, 0.0, 0.0, 0.0, 0.0, 0.0, 0.0, 0.0, 0.0, 0.0, 0.0]","[0.0, 0.0, 0.0, 0.0, 0.0, 0.0, 0.0, 0.0, 0.0, 0.0, 0.0, 0.0, 0.0, 0.0, 0.0, 0.0, 0.0, 0.0, 0.0, 0.0, 0.0, 0.0, 0.0, 0.0, 0.0, 0.0, 0.0, 0.0, 0.0, 0.0, 0.0, 0.0, 0.0, 0.0, 0.0, 0.0, 0.0, 0.0, 0.0, 0.0, 0.0, 0.0, 0.0, 0.0, 0.0, 0.0, 0.0]","[0, 0, 0, 0, 0, 0, 0, 0, 0, 0, 0, 0, 0, 0, 0, 0, 0, 0, 0, 0, 0, 0, 0, 0, 0, 0, 0, 0, 0, 0, 0, 0, 0, 0, 0, 0, 0, 0, 0, 0, 0, 0, 0, 0, 0, 0, 0]","[0, 0, 0, 0, 0, 0, 0, 0, 0, 0, 0, 0, 0, 0, 0, 0, 0, 0, 0, 0, 0, 0, 0, 0, 0, 0, 0, 0, 0, 0, 0, 0, 0, 0, 0, 0, 0, 0, 0, 0, 0, 0, 0, 0, 0, 0, 0]","[0, 0, 0, 0, 0, 0, 0, 0, 0, 0, 0, 0, 0, 0, 0, 0, 0, 0, 0, 0, 0, 0, 0, 0, 0, 0, 0, 0, 0, 0, 0, 0, 0, 0, 0, 0, 0, 0, 0, 0, 0, 0, 0, 0, 0, 0, 0]","[0.00031370000215247273, 0.01522050000494346, 0.029819100003805943, 0.04518070000631269, 0.06205680000130087, 0.07844029999978375, 0.09509600000455976, 0.11172840000654105, 0.1283908000041265, 0.1449317000078736, 0.16263619999517687, 0.17831610000575893, 0.194932800004608, 0.2115040000062436, 0.2281857000052696, 0.2449386000080267, 0.2615855000040028, 0.2781727999972645, 0.2949016000056872, 0.3119576000026427, 0.3281717000063509, 0.34592809999594465, 0.362082299994654, 0.3780601000034949, 0.39484680000168737, 0.4114585000061197, 0.42799989999912214, 0.44475199999578763, 0.46155710000311956, 0.4780938000039896, 0.4945720999967307, 0.5115442999958759, 0.5280650000058813, 0.5446210000081919, 0.561329799995292, 0.5778011000074912, 0.5944996000034735, 0.6112084000051254, 0.6280217000021366, 0.6445436000067275, 0.661361799997394, 0.6778548000002047, 0.6951779000082752, 0.7111289000022225, 0.7277963999949861, 0.7444485000014538, 0.7612459000083618]",0.010874090003198944,0.788078889992903,29.7899488999974,None,29.7899488999974,None,29.7899488999974,None,29.7899488999974,30.30333999999857,29.7899488999974,None,,,,,,,,,,,,,,,,,,,,,,,,,,,,,,,,,,,,,,,,,,,,,,,,,,,,,,,,,,,,,0,001,2020_Oct_14_1346,vm_20xx,2020.2.4,60.10980859650604,
-0.3,-0.3,0,,,,,0,6,6,10,,,,,,,,,,,,,,,,,,,,,30.78881630000251,None,30.78881630000251,None,31.41891609999584,None,30.78881630000251,None,"[0.0, 0.0, 0.0, 0.0, 0.0, 0.0, 0.0, 0.0, 0.0, 0.0, 0.0, 0.0, 0.0, 0.0, 0.0, 0.0, 0.0, 0.0, 0.0, 0.0, 0.0, 0.0, 0.0, 0.0, 0.0, 0.0, 0.0, 0.0, 0.0, 0.0, 0.0, 0.0, 0.0, 0.0, 0.0, 0.0, 0.0, 0.0, 0.0]","[0.0, 0.0, 0.0, 0.0, 0.0, 0.0, 0.0, 0.0, 0.0, 0.0, 0.0, 0.0, 0.0, 0.0, 0.0, 0.0, 0.0, 0.0, 0.0, 0.0, 0.0, 0.0, 0.0, 0.0, 0.0, 0.0, 0.0, 0.0, 0.0, 0.0, 0.0, 0.0, 0.0, 0.0, 0.0, 0.0, 0.0, 0.0, 0.0]","[0, 0, 0, 0, 0, 0, 0, 0, 0, 0, 0, 0, 0, 0, 0, 0, 0, 0, 0, 0, 0, 0, 0, 0, 0, 0, 0, 0, 0, 0, 0, 0, 0, 0, 0, 0, 0, 0, 0]","[0, 0, 0, 0, 0, 0, 0, 0, 0, 0, 0, 0, 0, 0, 0, 0, 0, 0, 0, 0, 0, 0, 0, 0, 0, 0, 0, 0, 0, 0, 0, 0, 0, 0, 0, 0, 0, 0, 0]","[0, 0, 0, 0, 0, 0, 0, 0, 0, 0, 0, 0, 0, 0, 0, 0, 0, 0, 0, 0, 0, 0, 0, 0, 0, 0, 0, 0, 0, 0, 0, 0, 0, 0, 0, 0, 0, 0, 0]","[0.0003116000007139519, 0.014597500005038455, 0.0293729999975767, 0.0450289000000339, 0.061767400009557605, 0.07887080000364222, 0.09567670000251383, 0.11181740000029095, 0.12831759999971837, 0.1448960999987321, 0.16176350000023376, 0.1783144000073662, 0.19493120000697672, 0.21155170000565704, 0.2281851000007009, 0.24487840000074357, 0.2617876000003889, 0.27817020000657067, 0.2947767000005115, 0.3116282999981195, 0.3281104000052437, 0.34472459999960847, 0.3614730000117561, 0.37808760000916664, 0.3946950000099605, 0.4113614000089001, 0.42830110000795685, 0.44469210000534076, 0.46137040000758134, 0.47798290000355337, 0.4952839000034146, 0.5118844000098761, 0.5280101000098512, 0.5449148000043351, 0.5611402000067756, 0.5780588000052376, 0.594452999997884, 0.6113055000023451, 0.627965600011521]",0.01098129000456538,0.6549142900039442,32.02163909999945,None,32.02163909999945,None,32.02163909999945,None,32.02163909999945,32.534361199999694,32.02163909999945,None,,,,,,,,,,,,,,,,,,,,,,,,,,,,,,,,,,,,,,,,,,,,,,,,,,,,,,,,,,,,,0,001,2020_Oct_14_1346,vm_20xx,2020.2.4,60.10980859650604,
0.3,-0.3,0,,,,,0,7,7,3,,,,,,,,,,,,,,,,,,,,,33.02056520000042,None,33.02056520000042,None,33.63345649999974,None,33.02056520000042,None,"[0.0, 0.0, 0.0, 0.0, 0.0, 0.0, 0.0, 0.0, 0.0, 0.0, 0.0, 0.0, 0.0, 0.0, 0.0, 0.0, 0.0, 0.0, 0.0, 0.0, 0.0, 0.0, 0.0, 0.0, 0.0, 0.0, 0.0, 0.0, 0.0, 0.0, 0.0, 0.0, 0.0, 0.0, 0.0, 0.0, 0.0, 0.0]","[0.0, 0.0, 0.0, 0.0, 0.0, 0.0, 0.0, 0.0, 0.0, 0.0, 0.0, 0.0, 0.0, 0.0, 0.0, 0.0, 0.0, 0.0, 0.0, 0.0, 0.0, 0.0, 0.0, 0.0, 0.0, 0.0, 0.0, 0.0, 0.0, 0.0, 0.0, 0.0, 0.0, 0.0, 0.0, 0.0, 0.0, 0.0]","[0, 0, 0, 0, 0, 0, 0, 0, 0, 0, 0, 0, 0, 0, 0, 0, 0, 0, 0, 0, 0, 0, 0, 0, 0, 0, 0, 0, 0, 0, 0, 0, 0, 0, 0, 0, 0, 0]","[0, 0, 0, 0, 0, 0, 0, 0, 0, 0, 0, 0, 0, 0, 0, 0, 0, 0, 0, 0, 0, 0, 0, 0, 0, 0, 0, 0, 0, 0, 0, 0, 0, 0, 0, 0, 0, 0]","[0, 0, 0, 0, 0, 0, 0, 0, 0, 0, 0, 0, 0, 0, 0, 0, 0, 0, 0, 0, 0, 0, 0, 0, 0, 0, 0, 0, 0, 0, 0, 0, 0, 0, 0, 0, 0, 0]","[0.00031709999893791974, 0.01568779999797698, 0.0309038999985205, 0.04631869999866467, 0.06241309999313671, 0.07845209998777136, 0.09499259998847265, 0.1116555999906268, 0.12832059999345802, 0.14505209999333601, 0.16176609999092761, 0.17828069999814034, 0.19550379998690914, 0.21237429999746382, 0.22867919999407604, 0.24535659998946358, 0.26166429999284446, 0.27810779999708757, 0.29487039998639375, 0.3115564999898197, 0.3280810999858659, 0.34488959998998325, 0.36144349999085534, 0.3779874999891035, 0.39474809999228455, 0.4114120999875013, 0.4279112999938661, 0.4449943999934476, 0.4613245999935316, 0.47792989999288693, 0.49469789999420755, 0.5114058999897679, 0.528062699988368, 0.5446382999944035, 0.5612903999863192, 0.57784709999396, 0.5946675999875879, 0.6113000999903306]",0.010965990004478954,0.6381891900091432,34.60494170000311,None,34.60494170000311,None,34.60494170000311,None,34.60494170000311,35.115438000008,34.60494170000311,None,,,,,,,,,,,,,,,,,,,,,,,,,,,,,,,,,,,,,,,,,,,,,,,,,,,,,,,,,,,,,0,001,2020_Oct_14_1346,vm_20xx,2020.2.4,60.10980859650604,
0.3,-0.3,0,,,,,0,8,8,7,,,,,,,,,,,,,,,,,,,,,35.60115109999606,None,35.60115109999606,None,36.929309200000716,None,35.60115109999606,None,"[0.0, 0.0, 0.0, 0.0, 0.0, 0.0, 0.0, 0.0, 0.0, 0.0, 0.0, 0.0, 0.0, 0.0, 0.0, 0.0, 0.0, 0.0, 0.0, 0.0, 0.0, 0.0, 0.0, 0.0, 0.0, 0.0, 0.0, 0.0, 0.0, 0.0, 0.0, 0.0, 0.0, 0.0, 0.0, 0.0, 0.0, 0.0, 0.0, 0.0, 0.0, 0.0, 0.0, 0.0, 0.0, 0.0, 0.0, 0.0, 0.0, 0.0, 0.0, 0.0, 0.0, 0.0, 0.0, 0.0, 0.0, 0.0, 0.0, 0.0, 0.0, 0.0, 0.0, 0.0, 0.0, 0.0, 0.0, 0.0, 0.0, 0.0, 0.0, 0.0, 0.0, 0.0, 0.0, 0.0, 0.0, 0.0, 0.0, 0.0, 0.0]","[0.0, 0.0, 0.0, 0.0, 0.0, 0.0, 0.0, 0.0, 0.0, 0.0, 0.0, 0.0, 0.0, 0.0, 0.0, 0.0, 0.0, 0.0, 0.0, 0.0, 0.0, 0.0, 0.0, 0.0, 0.0, 0.0, 0.0, 0.0, 0.0, 0.0, 0.0, 0.0, 0.0, 0.0, 0.0, 0.0, 0.0, 0.0, 0.0, 0.0, 0.0, 0.0, 0.0, 0.0, 0.0, 0.0, 0.0, 0.0, 0.0, 0.0, 0.0, 0.0, 0.0, 0.0, 0.0, 0.0, 0.0, 0.0, 0.0, 0.0, 0.0, 0.0, 0.0, 0.0, 0.0, 0.0, 0.0, 0.0, 0.0, 0.0, 0.0, 0.0, 0.0, 0.0, 0.0, 0.0, 0.0, 0.0, 0.0, 0.0, 0.0]","[0, 0, 0, 0, 0, 0, 0, 0, 0, 0, 0, 0, 0, 0, 0, 0, 0, 0, 0, 0, 0, 0, 0, 0, 0, 0, 0, 0, 0, 0, 0, 0, 0, 0, 0, 0, 0, 0, 0, 0, 0, 0, 0, 0, 0, 0, 0, 0, 0, 0, 0, 0, 0, 0, 0, 0, 0, 0, 0, 0, 0, 0, 0, 0, 0, 0, 0, 0, 0, 0, 0, 0, 0, 0, 1, 1, 1, 1, 1, 1, 1]","[0, 0, 0, 0, 0, 0, 0, 0, 0, 0, 0, 0, 0, 0, 0, 0, 0, 0, 0, 0, 0, 0, 0, 0, 0, 0, 0, 0, 0, 0, 0, 0, 0, 0, 0, 0, 0, 0, 0, 0, 0, 0, 0, 0, 0, 0, 0, 0, 0, 0, 0, 0, 0, 0, 0, 0, 0, 0, 0, 0, 0, 0, 0, 0, 0, 0, 0, 0, 0, 0, 0, 0, 0, 0, 0, 0, 0, 0, 0, 0, 0]","[0, 0, 0, 0, 0, 0, 0, 0, 0, 0, 0, 0, 0, 0, 0, 0, 0, 0, 0, 0, 0, 0, 0, 0, 0, 0, 0, 0, 0, 0, 0, 0, 0, 0, 0, 0, 0, 0, 0, 0, 0, 0, 0, 0, 0, 0, 0, 0, 0, 0, 0, 0, 0, 0, 0, 0, 0, 0, 0, 0, 0, 0, 0, 0, 0, 0, 0, 0, 0, 0, 0, 0, 0, 0, 0, 0, 0, 0, 0, 0, 0]","[0.0003259000077378005, 0.014621499998611398, 0.028244300003279932, 0.044947300004423596, 0.06162659999972675, 0.07820260000880808, 0.09490240000013728, 0.11140370000794064, 0.1285288000071887, 0.14475360000506043, 0.16143140000349376, 0.1780882000020938, 0.1947713000117801, 0.21165870000550058, 0.2280007000081241, 0.24478500000259373, 0.26151820000086445, 0.27809700000216253, 0.29488090000813827, 0.31135630000790115, 0.32793579999997746, 0.34472020000976045, 0.3613015000009909, 0.3779017000051681, 0.39456349999818485, 0.4111209999973653, 0.42783800000324845, 0.4447050000017043, 0.4612482000084128, 0.4778664000041317, 0.49463529999775346, 0.5112911000032909, 0.528226900001755, 0.5444647999975132, 0.56107970001176, 0.5778623000078369, 0.5943800000095507, 0.6110339000006206, 0.628011200009496, 0.6443737000081455, 0.6608829000033438, 0.6776823000109289, 0.6943327000044519, 0.7110623000044143, 0.7280247000016971, 0.7444365999981528, 0.7609940000111237, 0.7776450000092154, 0.7942755000112811, 0.810858000011649, 0.8253876000089804, 0.8420427000091877, 0.8584496000112267, 0.8761180000001332, 0.8921963000029791, 0.9093895000114571, 0.9259430000092834, 0.9422300000005635, 0.9587598000071011, 0.9753975000057835, 0.9917548000084935, 1.0083603000093717, 1.0252700999990338, 1.0417898000014247, 1.0583575000055134, 1.0750439000112237, 1.0914801000035368, 1.1086646000039764, 1.1251867000100901, 1.1417148000036832, 1.158376200008206, 1.1752352000039537, 1.19188350001059, 1.2079486000002362, 1.2248270999989472, 1.2411535999999614, 1.2579421999980696, 1.2744040000106907, 1.2912566000013612, 1.307830500009004, 1.324322200001916]",0.010901689995080233,1.3528103900025599,37.73492960000294,None,37.73492960000294,None,37.73492960000294,None,37.73492960000294,38.24572700000135,37.73492960000294,None,,,,,,,,,,,,,,,,,,,,,,,,,,,,,,,,,,,,,,,,,,,,,,,,,,,,,,,,,,,,,0,001,2020_Oct_14_1346,vm_20xx,2020.2.4,60.10980859650604,
0.3,0.3,0,,,,,0,9,9,4,,,,,,,,,,,,,,,,,,,,,38.73166900000069,None,38.73166900000069,None,39.96073380000598,None,38.73166900000069,None,"[0.0, 0.0, 0.0, 0.0, 0.0, 0.0, 0.0, 0.0, 0.0, 0.0, 0.0, 0.0, 0.0, 0.0, 0.0, 0.0, 0.0, 0.0, 0.0, 0.0, 0.0, 0.0, 0.0, 0.0, 0.0, 0.0, 0.0, 0.0, 0.0, 0.0, 0.0, 0.0, 0.0, 0.0, 0.0, 0.0, 0.0, 0.0, 0.0, 0.0, 0.0, 0.0, 0.0, 0.0, 0.0, 0.0, 0.0, 0.0, 0.0, 0.0, 0.0, 0.0, 0.0, 0.0, 0.0, 0.0, 0.0, 0.0, 0.0, 0.0, 0.0, 0.0, 0.0, 0.0, 0.0, 0.0, 0.0, 0.0, 0.0, 0.0, 0.0, 0.0, 0.0, 0.0, 0.0, 0.0]","[0.0, 0.0, 0.0, 0.0, 0.0, 0.0, 0.0, 0.0, 0.0, 0.0, 0.0, 0.0, 0.0, 0.0, 0.0, 0.0, 0.0, 0.0, 0.0, 0.0, 0.0, 0.0, 0.0, 0.0, 0.0, 0.0, 0.0, 0.0, 0.0, 0.0, 0.0, 0.0, 0.0, 0.0, 0.0, 0.0, 0.0, 0.0, 0.0, 0.0, 0.0, 0.0, 0.0, 0.0, 0.0, 0.0, 0.0, 0.0, 0.0, 0.0, 0.0, 0.0, 0.0, 0.0, 0.0, 0.0, 0.0, 0.0, 0.0, 0.0, 0.0, 0.0, 0.0, 0.0, 0.0, 0.0, 0.0, 0.0, 0.0, 0.0, 0.0, 0.0, 0.0, 0.0, 0.0, 0.0]","[0, 0, 0, 0, 0, 0, 0, 0, 0, 0, 0, 0, 0, 0, 0, 0, 0, 0, 0, 0, 0, 0, 0, 0, 0, 0, 0, 0, 0, 0, 0, 0, 0, 0, 0, 0, 0, 0, 0, 0, 0, 1, 1, 1, 1, 1, 1, 0, 0, 0, 0, 0, 0, 0, 0, 0, 0, 0, 0, 0, 0, 0, 0, 0, 0, 0, 0, 0, 0, 0, 0, 0, 0, 0, 0, 0]","[0, 0, 0, 0, 0, 0, 0, 0, 0, 0, 0, 0, 0, 0, 0, 0, 0, 0, 0, 0, 0, 0, 0, 0, 0, 0, 0, 0, 0, 0, 0, 0, 0, 0, 0, 0, 0, 0, 0, 0, 0, 0, 0, 0, 0, 0, 0, 0, 0, 0, 0, 0, 0, 0, 0, 0, 0, 0, 0, 0, 0, 0, 0, 0, 0, 0, 0, 0, 0, 0, 0, 0, 0, 0, 0, 0]","[0, 0, 0, 0, 0, 0, 0, 0, 0, 0, 0, 0, 0, 0, 0, 0, 0, 0, 0, 0, 0, 0, 0, 0, 0, 0, 0, 0, 0, 0, 0, 0, 0, 0, 0, 0, 0, 0, 0, 0, 0, 0, 0, 0, 0, 0, 0, 0, 0, 0, 0, 0, 0, 0, 0, 0, 0, 0, 0, 0, 0, 0, 0, 0, 0, 0, 0, 0, 0, 0, 0, 0, 0, 0, 0, 0]","[0.00032139998802449554, 0.014671399985672906, 0.028670199986663647, 0.04481619999569375, 0.0615127999917604, 0.07807179998781066, 0.09469939999689814, 0.11138179998670239, 0.12813819998700637, 0.14461239999218378, 0.16144769999664277, 0.17810339998686686, 0.19527329999255016, 0.21165909999399446, 0.22793329998967238, 0.24465219999547116, 0.26121579999744426, 0.2779236999922432, 0.2944654999882914, 0.3111861999932444, 0.3278307999862591, 0.34472209999512415, 0.36126099999819417, 0.37782249999872874, 0.3945118999981787, 0.41144439998606686, 0.4278343999903882, 0.44469869999738876, 0.4620808999898145, 0.47777609998593107, 0.4942484999919543, 0.5110267999989446, 0.5277176999952644, 0.5444909999932861, 0.5613985999953002, 0.577717299995129, 0.5943353999900864, 0.6112276999920141, 0.627752899992629, 0.6442749999987427, 0.6609858999872813, 0.6794294999999693, 0.693533399986336, 0.7099475999857532, 0.7268300999858184, 0.7432523999887053, 0.7610041999869281, 0.7779078999883495, 0.7939458999899216, 0.8109558999858564, 0.827402599999914, 0.8440952999953879, 0.8611398999928497, 0.8774010999914026, 0.8939608999935444, 0.9107185999891954, 0.9277721999969799, 0.9444942999980412, 0.9607837999938056, 0.9773072999960277, 0.9940123999986099, 1.010627099996782, 1.0275666999950772, 1.0438881999871228, 1.0605371999990894, 1.0772031999949832, 1.0937810999894282, 1.1112293999904068, 1.1272688999888487, 1.145123299997067, 1.1605367999873124, 1.177160899998853, 1.1946829999942565, 1.2104709999985062, 1.2276284999970812, 1.2436193999892566]",0.0108109899883857,1.2706608899898129,40.88107600000512,None,40.88107600000512,None,40.88107600000512,None,40.88107600000512,41.39279749999696,40.88107600000512,None,,,,,,,,,,,,,,,,,,,,,,,,,,,,,,,,,,,,,,,,,,,,,,,,,,,,,,,,,,,,,0,001,2020_Oct_14_1346,vm_20xx,2020.2.4,60.10980859650604,
0.3,-0.3,0,,,,,0,10,10,11,,,,,,,,,,,,,,,,,,,,,41.8787566999963,None,41.8787566999963,None,43.290963499995996,None,41.8787566999963,None,"[0.0, 0.0, 0.0, 0.0, 0.0, 0.0, 0.0, 0.0, 0.0, 0.0, 0.0, 0.0, 0.0, 0.0, 0.0, 0.0, 0.0, 0.0, 0.0, 0.0, 0.0, 0.0, 0.0, 0.0, 0.0, 0.0, 0.0, 0.0, 0.0, 0.0, 0.0, 0.0, 0.0, 0.0, 0.0, 0.0, 0.0, 0.0, 0.0, 0.0, 0.0, 0.0, 0.0, 0.0, 0.0, 0.0, 0.0, 0.0, 0.0, 0.0, 0.0, 0.0, 0.0, 0.0, 0.0, 0.0, 0.0, 0.0, 0.0, 0.0, 0.0, 0.0, 0.0, 0.0, 0.0, 0.0, 0.0, 0.0, 0.0, 0.0, 0.0, 0.0, 0.0, 0.0, 0.0, 0.0, 0.0, 0.0, 0.0, 0.0, 0.0, 0.0, 0.0, 0.0, 0.0, 0.0, 0.0]","[0.0, 0.0, 0.0, 0.0, 0.0, 0.0, 0.0, 0.0, 0.0, 0.0, 0.0, 0.0, 0.0, 0.0, 0.0, 0.0, 0.0, 0.0, 0.0, 0.0, 0.0, 0.0, 0.0, 0.0, 0.0, 0.0, 0.0, 0.0, 0.0, 0.0, 0.0, 0.0, 0.0, 0.0, 0.0, 0.0, 0.0, 0.0, 0.0, 0.0, 0.0, 0.0, 0.0, 0.0, 0.0, 0.0, 0.0, 0.0, 0.0, 0.0, 0.0, 0.0, 0.0, 0.0, 0.0, 0.0, 0.0, 0.0, 0.0, 0.0, 0.0, 0.0, 0.0, 0.0, 0.0, 0.0, 0.0, 0.0, 0.0, 0.0, 0.0, 0.0, 0.0, 0.0, 0.0, 0.0, 0.0, 0.0, 0.0, 0.0, 0.0, 0.0, 0.0, 0.0, 0.0, 0.0, 0.0]","[0, 0, 0, 0, 0, 0, 0, 0, 0, 0, 0, 0, 0, 0, 0, 0, 0, 0, 0, 0, 0, 0, 0, 0, 0, 0, 0, 0, 0, 0, 0, 0, 0, 0, 0, 0, 0, 0, 0, 0, 0, 0, 0, 0, 0, 0, 0, 0, 0, 0, 0, 0, 0, 0, 0, 0, 0, 0, 0, 0, 0, 0, 0, 0, 0, 0, 0, 0, 0, 0, 0, 0, 0, 0, 0, 0, 0, 0, 0, 0, 0, 0, 0, 0, 0, 0, 0]","[0, 0, 0, 0, 0, 0, 0, 0, 0, 0, 0, 0, 0, 0, 0, 0, 0, 0, 0, 0, 0, 0, 0, 0, 0, 0, 0, 0, 0, 0, 0, 0, 0, 0, 0, 0, 0, 0, 0, 0, 0, 0, 0, 0, 0, 0, 0, 0, 0, 0, 0, 0, 0, 0, 0, 0, 0, 0, 0, 0, 0, 0, 0, 0, 0, 0, 0, 0, 0, 0, 0, 0, 0, 0, 0, 0, 0, 0, 0, 0, 0, 0, 0, 0, 0, 0, 0]","[0, 0, 0, 0, 0, 0, 0, 0, 0, 0, 0, 0, 0, 0, 0, 0, 0, 0, 0, 0, 0, 0, 0, 0, 0, 0, 0, 0, 0, 0, 0, 0, 0, 0, 0, 0, 0, 0, 0, 0, 0, 0, 0, 0, 0, 0, 0, 0, 0, 0, 0, 0, 0, 0, 0, 0, 0, 0, 0, 0, 0, 0, 0, 0, 0, 0, 0, 0, 0, 0, 0, 0, 0, 0, 0, 0, 0, 0, 0, 0, 0, 0, 0, 0, 0, 0, 0]","[0.000327600006130524, 0.014905500007444061, 0.028670100000454113, 0.0449922000116203, 0.06183669999882113, 0.07830819999799132, 0.09499260000302456, 0.11159800000314135, 0.1283611000108067, 0.14499530001194216, 0.16160120000131428, 0.17809400000260212, 0.19484480000392068, 0.21149510001123417, 0.2281315000000177, 0.24490479999803938, 0.2614518000045791, 0.27829539999947883, 0.2947864000016125, 0.3112576999992598, 0.3281067000061739, 0.34505680001166184, 0.36133720001089387, 0.3779604000010295, 0.3947463000076823, 0.41123480000533164, 0.428099700002349, 0.4445847000024514, 0.46130490000359714, 0.47804339999856893, 0.4946174000069732, 0.511334100010572, 0.527960700012045, 0.5444997000013245, 0.5610965000087162, 0.5778223000088474, 0.5950682000111556, 0.6117277000012109, 0.6277889000048162, 0.6444869000115432, 0.6611707999982173, 0.6777950000105193, 0.7000293000019155, 0.7166717000072822, 0.7307327000016812, 0.7443845000088913, 0.7616864000010537, 0.7776905000064289, 0.7942238000105135, 0.811369700008072, 0.8275912000099197, 0.8442938000080176, 0.8611180000007153, 0.8777544000040507, 0.8941658000112511, 0.9109643999981927, 0.9276581000012811, 0.9442101000022376, 0.9608369000052335, 0.9776790000032634, 0.994158100002096, 1.0108088999986649, 1.0274963999981992, 1.0442593000043416, 1.0606998000002932, 1.077559299999848, 1.0941701999981888, 1.1106389000051422, 1.127404300001217, 1.144000700005563, 1.1605119000014383, 1.177324200005387, 1.1939407000027131, 1.2107863999990514, 1.2281768000102602, 1.243938800005708, 1.260558599999058, 1.277268500009086, 1.2939507000119193, 1.3103544000041438, 1.3287603000062518, 1.343928300004336, 1.3614260000031209, 1.3770752999989782, 1.3936970000067959, 1.4107711000106065, 1.4269811999984086]",0.01089919000514783,1.4542998900142265,44.18222990000504,None,44.18222990000504,None,44.18222990000504,None,44.18222990000504,44.68956899999466,44.18222990000504,None,,,,,,,,,,,,,,,,,,,,,,,,,,,,,,,,,,,,,,,,,,,,,,,,,,,,,,,,,,,,,0,001,2020_Oct_14_1346,vm_20xx,2020.2.4,60.10980859650604,
0.3,0.3,0,,,,,0,11,11,0,,,,,,,,,,,,,,,,,,,,,45.19215919999988,None,45.19215919999988,None,45.905285200002254,None,45.19215919999988,None,"[0.0, 0.0, 0.0, 0.0, 0.0, 0.0, 0.0, 0.0, 0.0, 0.0, 0.0, 0.0, 0.0, 0.0, 0.0, 0.0, 0.0, 0.0, 0.0, 0.0, 0.0, 0.0, 0.0, 0.0, 0.0, 0.0, 0.0, 0.0, 0.0, 0.0, 0.0, 0.0, 0.0, 0.0, 0.0, 0.0, 0.0, 0.0, 0.0, 0.0, 0.0, 0.0, 0.0, 0.0, 0.0]","[0.0, 0.0, 0.0, 0.0, 0.0, 0.0, 0.0, 0.0, 0.0, 0.0, 0.0, 0.0, 0.0, 0.0, 0.0, 0.0, 0.0, 0.0, 0.0, 0.0, 0.0, 0.0, 0.0, 0.0, 0.0, 0.0, 0.0, 0.0, 0.0, 0.0, 0.0, 0.0, 0.0, 0.0, 0.0, 0.0, 0.0, 0.0, 0.0, 0.0, 0.0, 0.0, 0.0, 0.0, 0.0]","[0, 0, 0, 0, 0, 0, 0, 0, 0, 0, 0, 0, 0, 0, 0, 0, 0, 0, 0, 0, 0, 0, 0, 0, 0, 0, 0, 0, 0, 0, 0, 0, 0, 0, 0, 0, 0, 0, 0, 0, 0, 0, 0, 0, 0]","[0, 0, 0, 0, 0, 0, 0, 0, 0, 0, 0, 0, 0, 0, 0, 0, 0, 0, 0, 0, 0, 0, 0, 0, 0, 0, 0, 0, 0, 0, 0, 0, 0, 0, 0, 0, 0, 0, 0, 0, 0, 0, 0, 0, 0]","[0, 0, 0, 0, 0, 0, 0, 0, 0, 0, 0, 0, 0, 0, 0, 0, 0, 0, 0, 0, 0, 0, 0, 0, 0, 0, 0, 0, 0, 0, 0, 0, 0, 0, 0, 0, 0, 0, 0, 0, 0, 0, 0, 0, 0]","[0.0003271000023232773, 0.015248700001393445, 0.029781900011585094, 0.04573370001162402, 0.06157950000488199, 0.07832690000941511, 0.09502630001225043, 0.11159070000576321, 0.128217700010282, 0.14529270000639372, 0.16154030000325292, 0.1782761000067694, 0.19487850001314655, 0.2113114000094356, 0.22832620001281612, 0.24475490000622813, 0.26142610001261346, 0.27813620000961237, 0.29583880001155194, 0.31142220000037923, 0.32802480000827927, 0.3448774999997113, 0.36130690001300536, 0.3781617000058759, 0.39465390000259504, 0.41118950000964105, 0.4278091000014683, 0.4449787000048673, 0.46144870000716764, 0.4778120000119088, 0.49461340000561904, 0.5110664000094403, 0.528965600009542, 0.5454208000010112, 0.5621429000020726, 0.577894500005641, 0.5944511000125203, 0.6113586999999825, 0.6277848000027006, 0.6443541000044206, 0.661298999999417, 0.6776701000053436, 0.694385599999805, 0.7110385000123642, 0.7276975999993738]",0.010909290009294637,0.7545989900099812,46.66568590000679,None,46.66568590000679,None,46.66568590000679,None,46.66568590000679,47.17057760000171,46.66568590000679,None,,,,,,,,,,,,,,,,,,,,,,,,,,,,,,,,,,,,,,,,,,,,,,,,,,,,,,,,,,,,,0,001,2020_Oct_14_1346,vm_20xx,2020.2.4,60.10980859650604,
0.3,-0.3,0,,,,,0,12,12,15,,,,,,,,,,,,,,,,,,,,,47.656660399996326,None,47.656660399996326,None,49.13552080000227,None,47.656660399996326,None,"[0.0, 0.0, 0.0, 0.0, 0.0, 0.0, 0.0, 0.0, 0.0, 0.0, 0.0, 0.0, 0.0, 0.0, 0.0, 0.0, 0.0, 0.0, 0.0, 0.0, 0.0, 0.0, 0.0, 0.0, 0.0, 0.0, 0.0, 0.0, 0.0, 0.0, 0.0, 0.0, 0.0, 0.0, 0.0, 0.0, 0.0, 0.0, 0.0, 0.0, 0.0, 0.0, 0.0, 0.0, 0.0, 0.0, 0.0, 0.0, 0.0, 0.0, 0.0, 0.0, 0.0, 0.0, 0.0, 0.0, 0.0, 0.0, 0.0, 0.0, 0.0, 0.0, 0.0, 0.0, 0.0, 0.0, 0.0, 0.0, 0.0, 0.0, 0.0, 0.0, 0.0, 0.0, 0.0, 0.0, 0.0, 0.0, 0.0, 0.0, 0.0, 0.0, 0.0, 0.0, 0.0, 0.0, 0.0, 0.0, 0.0, 0.0]","[0.0, 0.0, 0.0, 0.0, 0.0, 0.0, 0.0, 0.0, 0.0, 0.0, 0.0, 0.0, 0.0, 0.0, 0.0, 0.0, 0.0, 0.0, 0.0, 0.0, 0.0, 0.0, 0.0, 0.0, 0.0, 0.0, 0.0, 0.0, 0.0, 0.0, 0.0, 0.0, 0.0, 0.0, 0.0, 0.0, 0.0, 0.0, 0.0, 0.0, 0.0, 0.0, 0.0, 0.0, 0.0, 0.0, 0.0, 0.0, 0.0, 0.0, 0.0, 0.0, 0.0, 0.0, 0.0, 0.0, 0.0, 0.0, 0.0, 0.0, 0.0, 0.0, 0.0, 0.0, 0.0, 0.0, 0.0, 0.0, 0.0, 0.0, 0.0, 0.0, 0.0, 0.0, 0.0, 0.0, 0.0, 0.0, 0.0, 0.0, 0.0, 0.0, 0.0, 0.0, 0.0, 0.0, 0.0, 0.0, 0.0, 0.0]","[0, 0, 0, 0, 0, 0, 0, 0, 0, 0, 0, 0, 0, 0, 0, 0, 0, 0, 0, 0, 0, 0, 0, 0, 0, 0, 0, 0, 0, 0, 0, 0, 0, 0, 0, 0, 0, 0, 0, 0, 0, 0, 0, 0, 0, 0, 0, 0, 0, 0, 0, 0, 0, 0, 0, 0, 0, 0, 0, 0, 0, 0, 0, 0, 0, 0, 0, 0, 0, 0, 0, 0, 0, 0, 0, 0, 0, 0, 0, 0, 0, 0, 0, 0, 0, 0, 0, 0, 0, 0]","[0, 0, 0, 0, 0, 0, 0, 0, 0, 0, 0, 0, 0, 0, 0, 0, 0, 0, 0, 0, 0, 0, 0, 0, 0, 0, 0, 0, 0, 0, 0, 0, 0, 0, 0, 0, 0, 0, 0, 0, 0, 0, 0, 0, 0, 0, 0, 0, 0, 0, 0, 0, 0, 0, 0, 0, 0, 0, 0, 0, 0, 0, 0, 0, 0, 0, 0, 0, 0, 0, 0, 0, 0, 0, 0, 0, 0, 0, 0, 0, 0, 0, 0, 0, 0, 0, 0, 0, 0, 0]","[0, 0, 0, 0, 0, 0, 0, 0, 0, 0, 0, 0, 0, 0, 0, 0, 0, 0, 0, 0, 0, 0, 0, 0, 0, 0, 0, 0, 0, 0, 0, 0, 0, 0, 0, 0, 0, 0, 0, 0, 0, 0, 0, 0, 0, 0, 0, 0, 0, 0, 0, 0, 0, 0, 0, 0, 0, 0, 0, 0, 0, 0, 0, 0, 0, 0, 0, 0, 0, 0, 0, 0, 0, 0, 0, 0, 0, 0, 0, 0, 0, 0, 0, 0, 0, 0, 0, 0, 0, 0]","[0.0003251999878557399, 0.015024199994513765, 0.02981039999576751, 0.045085899997502565, 0.06275739999546204, 0.07835509999131318, 0.09490149999328423, 0.11163749999832362, 0.12830929999472573, 0.14503069999045692, 0.16165739999269135, 0.1786996999871917, 0.19504359998973086, 0.21166529999754857, 0.22845489998871926, 0.24486069999693427, 0.26150319998851046, 0.2781552999949781, 0.294817799993325, 0.31181919999653473, 0.3281393999932334, 0.34476329998869915, 0.36153039999771863, 0.3780168999946909, 0.39579689998936374, 0.41195029999653343, 0.42833059999975376, 0.4446533000009367, 0.4613169999938691, 0.4780157999921357, 0.4947476999950595, 0.5114117999910377, 0.5280207999894628, 0.5445126999984495, 0.5614726999920094, 0.5778259999933653, 0.594644500000868, 0.6119516999897314, 0.6281629000004614, 0.6450017999886768, 0.6611866999883205, 0.6780455999978585, 0.6944363999937195, 0.7110667999950238, 0.7279108999937307, 0.7444517999974778, 0.7611154999904102, 0.7777582999988226, 0.7943531999917468, 0.8110471999971196, 0.8277415999909863, 0.8442760999896564, 0.8610657999961404, 0.8776406999968458, 0.8949003999878187, 0.9108031999930972, 0.927537299998221, 0.9442220999917481, 0.9609171999909449, 0.977417099988088, 0.994898099990678, 1.0123888999951305, 1.0274245999898994, 1.0442254999943543, 1.0608241000009002, 1.0774403999967035, 1.0941488999960711, 1.1107149999879766, 1.1274242999934359, 1.144445599988103, 1.1608334999909857, 1.177191299997503, 1.193916399992304, 1.2106773999985307, 1.2271888999966905, 1.2442174999887357, 1.2606516999949235, 1.277132299990626, 1.2939330999943195, 1.3105209999921499, 1.3271491999912541, 1.344009399996139, 1.3604156999936095, 1.3770922999974573, 1.3940421000006609, 1.4107228999928338, 1.4271223999967333, 1.4438521999982186, 1.4605206999985967, 1.4771490999992238]",0.010989290007273667,1.504048690010677,50.15689110000676,None,50.15689110000676,None,50.15689110000676,None,50.15689110000676,50.66781450000417,50.15689110000676,None,,,,,,,,,,,,,,,,,,,,,,,,,,,,,,,,,,,,,,,,,,,,,,,,,,,,,,,,,,,,,0,001,2020_Oct_14_1346,vm_20xx,2020.2.4,60.10980859650604,
0.3,0.3,0,,,,,0,13,13,12,,,,,,,,,,,,,,,,,,,,,51.15281200000027,None,51.15281200000027,None,52.26596089999657,None,51.15281200000027,None,"[0.0, 0.0, 0.0, 0.0, 0.0, 0.0, 0.0, 0.0, 0.0, 0.0, 0.0, 0.0, 0.0, 0.0, 0.0, 0.0, 0.0, 0.0, 0.0, 0.0, 0.0, 0.0, 0.0, 0.0, 0.0, 0.0, 0.0, 0.0, 0.0, 0.0, 0.0, 0.0, 0.0, 0.0, 0.0, 0.0, 0.0, 0.0, 0.0, 0.0, 0.0, 0.0, 0.0, 0.0, 0.0, 0.0, 0.0, 0.0, 0.0, 0.0, 0.0, 0.0, 0.0, 0.0, 0.0, 0.0, 0.0, 0.0, 0.0, 0.0, 0.0, 0.0, 0.0, 0.0, 0.0, 0.0, 0.0, 0.0]","[0.0, 0.0, 0.0, 0.0, 0.0, 0.0, 0.0, 0.0, 0.0, 0.0, 0.0, 0.0, 0.0, 0.0, 0.0, 0.0, 0.0, 0.0, 0.0, 0.0, 0.0, 0.0, 0.0, 0.0, 0.0, 0.0, 0.0, 0.0, 0.0, 0.0, 0.0, 0.0, 0.0, 0.0, 0.0, 0.0, 0.0, 0.0, 0.0, 0.0, 0.0, 0.0, 0.0, 0.0, 0.0, 0.0, 0.0, 0.0, 0.0, 0.0, 0.0, 0.0, 0.0, 0.0, 0.0, 0.0, 0.0, 0.0, 0.0, 0.0, 0.0, 0.0, 0.0, 0.0, 0.0, 0.0, 0.0, 0.0]","[0, 0, 0, 0, 0, 0, 0, 0, 0, 0, 0, 0, 0, 0, 0, 0, 0, 0, 0, 0, 0, 0, 0, 0, 0, 0, 0, 0, 0, 0, 0, 0, 0, 0, 0, 0, 0, 0, 0, 0, 0, 0, 0, 0, 0, 0, 0, 0, 0, 0, 0, 0, 0, 0, 0, 0, 0, 0, 0, 0, 0, 0, 0, 0, 0, 0, 0, 0]","[0, 0, 0, 0, 0, 0, 0, 0, 0, 0, 0, 0, 0, 0, 0, 0, 0, 0, 0, 0, 0, 0, 0, 0, 0, 0, 0, 0, 0, 0, 0, 0, 0, 0, 0, 0, 0, 0, 0, 0, 0, 0, 0, 0, 0, 0, 0, 0, 0, 0, 0, 0, 0, 0, 0, 0, 0, 0, 0, 0, 0, 0, 0, 0, 0, 0, 0, 0]","[0, 0, 0, 0, 0, 0, 0, 0, 0, 0, 0, 0, 0, 0, 0, 0, 0, 0, 0, 0, 0, 0, 0, 0, 0, 0, 0, 0, 0, 0, 0, 0, 0, 0, 0, 0, 0, 0, 0, 0, 0, 0, 0, 0, 0, 0, 0, 0, 0, 0, 0, 0, 0, 0, 0, 0, 0, 0, 0, 0, 0, 0, 0, 0, 0, 0, 0, 0]","[0.0003122000052826479, 0.014521400007652119, 0.02902410000388045, 0.04524370000581257, 0.061612600009539165, 0.07844100000511389, 0.09500640000624117, 0.11174040001060348, 0.12830789999861736, 0.14488550000532996, 0.16161809999903198, 0.1789677000051597, 0.19491679999919143, 0.21153840000624768, 0.22831000000587665, 0.2449676999967778, 0.26162740000290796, 0.278313300004811, 0.2947825000010198, 0.3115743000089424, 0.3281885000033071, 0.34478549999766983, 0.36164540000027046, 0.3782543999986956, 0.39498230000026524, 0.41137490000983234, 0.4281475000025239, 0.44475860000238754, 0.4614131999987876, 0.4780524000088917, 0.49480250000488013, 0.51185439999972, 0.5279246999998577, 0.5447446000034688, 0.5616494999994757, 0.5779034000006504, 0.5947944000072312, 0.6112040000007255, 0.6279651000077138, 0.6444696999969892, 0.6611469000054058, 0.6778014000010444, 0.6943857000005664, 0.7111803000007058, 0.7278050000022631, 0.7443620999983978, 0.7614134000032209, 0.7788111999980174, 0.7945904000080191, 0.8111048999999184, 0.8278430000063963, 0.8443154999986291, 0.8610308000061195, 0.8777409000031184, 0.8941634000075283, 0.9108841999986907, 0.9276000000099884, 0.9447227000055136, 0.9612545999989379, 0.9775660000013886, 0.994331299996702, 1.0108255000086501, 1.0275305999966804, 1.0440989000053378, 1.060912000000826, 1.0775342999986606, 1.0940935000107856, 1.1108289999974659]",0.010946490001515485,1.1377733900008025,53.03978950000601,None,53.03978950000601,None,53.03978950000601,None,53.03978950000601,53.5480566000042,53.03978950000601,None,,,,,,,,,,,,,,,,,,,,,,,,,,,,,,,,,,,,,,,,,,,,,,,,,,,,,,,,,,,,,0,001,2020_Oct_14_1346,vm_20xx,2020.2.4,60.10980859650604,
-0.3,-0.3,0,,,,,0,14,14,2,,,,,,,,,,,,,,,,,,,,,54.049760900001274,None,54.049760900001274,None,54.88013160000264,None,54.049760900001274,None,"[0.0, 0.0, 0.0, 0.0, 0.0, 0.0, 0.0, 0.0, 0.0, 0.0, 0.0, 0.0, 0.0, 0.0, 0.0, 0.0, 0.0, 0.0, 0.0, 0.0, 0.0, 0.0, 0.0, 0.0, 0.0, 0.0, 0.0, 0.0, 0.0, 0.0, 0.0, 0.0, 0.0, 0.0, 0.0, 0.0, 0.0, 0.0, 0.0, 0.0, 0.0, 0.0, 0.0, 0.0, 0.0, 0.0, 0.0, 0.0, 0.0, 0.0, 0.0]","[0.0, 0.0, 0.0, 0.0, 0.0, 0.0, 0.0, 0.0, 0.0, 0.0, 0.0, 0.0, 0.0, 0.0, 0.0, 0.0, 0.0, 0.0, 0.0, 0.0, 0.0, 0.0, 0.0, 0.0, 0.0, 0.0, 0.0, 0.0, 0.0, 0.0, 0.0, 0.0, 0.0, 0.0, 0.0, 0.0, 0.0, 0.0, 0.0, 0.0, 0.0, 0.0, 0.0, 0.0, 0.0, 0.0, 0.0, 0.0, 0.0, 0.0, 0.0]","[0, 0, 0, 0, 0, 0, 0, 0, 0, 0, 0, 0, 0, 0, 0, 0, 0, 0, 0, 0, 0, 0, 0, 0, 0, 0, 0, 0, 0, 0, 0, 0, 0, 0, 0, 0, 0, 0, 0, 0, 0, 0, 0, 0, 0, 0, 0, 0, 0, 0, 0]","[0, 0, 0, 0, 0, 0, 0, 0, 0, 0, 0, 0, 0, 0, 0, 0, 0, 0, 0, 0, 0, 0, 0, 0, 0, 0, 0, 0, 0, 0, 0, 0, 0, 0, 0, 0, 0, 0, 0, 0, 0, 0, 0, 0, 0, 0, 0, 0, 0, 0, 0]","[0, 0, 0, 0, 0, 0, 0, 0, 0, 0, 0, 0, 0, 0, 0, 0, 0, 0, 0, 0, 0, 0, 0, 0, 0, 0, 0, 0, 0, 0, 0, 0, 0, 0, 0, 0, 0, 0, 0, 0, 0, 0, 0, 0, 0, 0, 0, 0, 0, 0, 0]","[0.0003242999955546111, 0.014373300000443123, 0.028530099996714853, 0.04508999999961816, 0.062446099997032434, 0.07857739999599289, 0.09507379999558907, 0.11172050000459421, 0.12878230000205804, 0.14505419999477454, 0.16161450000072364, 0.17827799999213312, 0.19485319999512285, 0.21147179999388754, 0.22875529999146238, 0.24493129999609664, 0.2616185999941081, 0.27815349999582395, 0.2947612999996636, 0.3120477999909781, 0.32881479999923613, 0.34483849999378435, 0.3614586000039708, 0.3787341999995988, 0.39480909999110736, 0.41143449999799486, 0.4280385000020033, 0.4446433999983128, 0.4612875000020722, 0.47813529999984894, 0.49482979999447707, 0.5112508000020171, 0.5280802999914158, 0.544662000000244, 0.5616580999922007, 0.5778717999928631, 0.5946641000045929, 0.6115228999988176, 0.6277856999950018, 0.6445475999935297, 0.6611661999922944, 0.6777744999999413, 0.6945534999977099, 0.7111060000024736, 0.7277594000042882, 0.7445937000011327, 0.7610672000009799, 0.7776089999970281, 0.7945040999911726, 0.8109928000048967, 0.8278092999971705]",0.010993390009389259,0.8547301900107414,55.72140979999676,None,55.72140979999676,None,55.72140979999676,None,55.72140979999676,56.22909380000783,55.72140979999676,None,,,,,,,,,,,,,,,,,,,,,,,,,,,,,,,,,,,,,,,,,,,,,,,,,,,,,,,,,,,,,0,001,2020_Oct_14_1346,vm_20xx,2020.2.4,60.10980859650604,
-0.3,0.3,0,,,,,0,15,15,9,,,,,,,,,,,,,,,,,,,,,56.731153900007484,None,56.731153900007484,None,57.31107759999577,None,56.731153900007484,None,"[0.0, 0.0, 0.0, 0.0, 0.0, 0.0, 0.0, 0.0, 0.0, 0.0, 0.0, 0.0, 0.0, 0.0, 0.0, 0.0, 0.0, 0.0, 0.0, 0.0, 0.0, 0.0, 0.0, 0.0, 0.0, 0.0, 0.0, 0.0, 0.0, 0.0, 0.0, 0.0, 0.0, 0.0, 0.0, 0.0, 0.0]","[0.0, 0.0, 0.0, 0.0, 0.0, 0.0, 0.0, 0.0, 0.0, 0.0, 0.0, 0.0, 0.0, 0.0, 0.0, 0.0, 0.0, 0.0, 0.0, 0.0, 0.0, 0.0, 0.0, 0.0, 0.0, 0.0, 0.0, 0.0, 0.0, 0.0, 0.0, 0.0, 0.0, 0.0, 0.0, 0.0, 0.0]","[0, 0, 0, 0, 0, 0, 0, 0, 0, 0, 0, 0, 0, 0, 0, 0, 0, 0, 0, 0, 0, 0, 0, 0, 0, 0, 0, 0, 0, 0, 0, 0, 0, 0, 0, 0, 0]","[0, 0, 0, 0, 0, 0, 0, 0, 0, 0, 0, 0, 0, 0, 0, 0, 0, 0, 0, 0, 0, 0, 0, 0, 0, 0, 0, 0, 0, 0, 0, 0, 0, 0, 0, 0, 0]","[0, 0, 0, 0, 0, 0, 0, 0, 0, 0, 0, 0, 0, 0, 0, 0, 0, 0, 0, 0, 0, 0, 0, 0, 0, 0, 0, 0, 0, 0, 0, 0, 0, 0, 0, 0, 0]","[0.00031870001112110913, 0.0147514999989653, 0.02907630000845529, 0.045059299998683855, 0.06239110000024084, 0.07853610000165645, 0.09512650000397116, 0.11187010000867303, 0.1285723000037251, 0.1459828000079142, 0.16167110000969842, 0.17898700000660028, 0.1951759000075981, 0.2115481000073487, 0.22825960000045598, 0.24499250001099426, 0.2614379000006011, 0.2781935000093654, 0.2948060000053374, 0.31168670000624843, 0.32821040000999346, 0.3449325000110548, 0.36156299999856856, 0.3780678000039188, 0.394779300011578, 0.4115060000040103, 0.4282067000021925, 0.44517580000683665, 0.4615426000091247, 0.47824960001162253, 0.494944400008535, 0.5113415000087116, 0.5280969000014011, 0.5447477999987314, 0.5612550000078045, 0.5781382999994094, 0.5945626000029733]",0.011007490014890209,0.6218234900152311,58.28060270000424,None,58.28060270000424,None,58.28060270000424,None,58.28060270000424,58.79291750000266,58.28060270000424,None,,,,,,,,,,,,,,,,,,,,,,,,,,,,,,,,,,,,,,,,,,,,,,,,,,,,,,,,,,,,,0,001,2020_Oct_14_1346,vm_20xx,2020.2.4,60.10980859650604,
,,,,,,,,,,,,,,,,,,,,,,,,,,,,,,,,,,,,,,,,,,,,,,,,,,,,,,,,,59.27580879999732,None,0.2594252900162246,None,,,,,,,,,,,,,,,,,,,,,,,,,,,,,,,,,,,,,,,,,,,,,,,,,,,,,,,,,0,001,2020_Oct_14_1346,vm_20xx,2020.2.4,60.10980859650604,
-0.3,0.3,0,,,,,,,,,0,0,0,0,0,0,0,1,,,,,,,,,,,,,,,,,,,,,,,,,,,,,,,,,,,,,,,,,,,60.23943030000373,None,60.23943030000373,None,61.07434799999464,None,60.23943030000373,None,"[0.0, 0.0, 0.0, 0.0, 0.0, 0.0, 0.0, 0.0, 0.0, 0.0, 0.0, 0.0, 0.0, 0.0, 0.0, 0.0, 0.0, 0.0, 0.0, 0.0, 0.0, 0.0, 0.0, 0.0, 0.0, 0.0, 0.0, 0.0, 0.0, 0.0, 0.0, 0.0, 0.0, 0.0, 0.0, 0.0, 0.0, 0.0, 0.0, 0.0, 0.0, 0.0, 0.0, 0.0, 0.0, 0.0, 0.0, 0.0, 0.0, 0.0, 0.0, 0.0, -0.007407407407407408, -0.025, -0.049074074074074076, -0.1, -0.13425925925925927, -0.17685185185185184, -0.2037037037037037, -0.25833333333333336]","[0.0, 0.0, 0.0, 0.0, 0.0, 0.0, 0.0, 0.0, 0.0, 0.0, 0.0, 0.0, 0.0, 0.0, 0.0, 0.0, 0.0, 0.0, 0.0, 0.0, 0.0, 0.0, 0.0, 0.0, 0.0, 0.0, 0.0, 0.0, 0.0, 0.0, 0.0, 0.0, 0.0, 0.0, 0.0, 0.0, 0.0, 0.0, 0.0, 0.0, 0.0, 0.0, 0.0, 0.0, 0.0, 0.0, 0.0, 0.0, 0.0, 0.0, 0.0, 0.0, -0.012037037037037037, -0.03611111111111111, -0.06851851851851852, -0.12685185185185185, -0.16296296296296298, -0.21203703703703702, -0.23796296296296296, -0.3]","[0, 0, 0, 0, 0, 0, 0, 0, 0, 0, 0, 0, 0, 0, 0, 0, 0, 0, 0, 0, 0, 0, 0, 0, 0, 0, 0, 0, 0, 0, 0, 0, 0, 0, 0, 0, 0, 0, 0, 1, 1, 1, 1, 1, 1, 1, 1, 1, 1, 1, 1, 1, 1, 1, 1, 1, 1, 1, 1, 1]","[0, 0, 0, 0, 0, 0, 0, 0, 0, 0, 0, 0, 0, 0, 0, 0, 0, 0, 0, 0, 0, 0, 0, 0, 0, 0, 0, 0, 0, 0, 0, 0, 0, 0, 0, 0, 0, 0, 0, 0, 0, 0, 0, 0, 0, 0, 0, 0, 0, 0, 0, 0, 0, 0, 0, 0, 0, 0, 0, 0]","[0, 0, 0, 0, 0, 0, 0, 0, 0, 0, 0, 0, 0, 0, 0, 0, 0, 0, 0, 0, 0, 0, 0, 0, 0, 0, 0, 0, 0, 0, 0, 0, 0, 0, 0, 0, 0, 0, 0, 0, 0, 0, 0, 0, 0, 0, 0, 0, 0, 0, 0, 0, 0, 0, 0, 0, 0, 0, 0, 0]","[0.0009535999997751787, 0.01709689998824615, 0.033511799992993474, 0.05033099999127444, 0.06764369999291375, 0.08355139999184757, 0.10030120000010356, 0.11697559998719953, 0.13353889998688828, 0.1503381999937119, 0.16692979999061208, 0.1834919999964768, 0.2002362999919569, 0.21681289999105502, 0.23347119998652488, 0.25007469998672605, 0.2668260999926133, 0.28335349999542814, 0.3001339999900665, 0.31672709999838844, 0.333366599996225, 0.3500078999932157, 0.3667251999868313, 0.3836735999939265, 0.4002470999985235, 0.41666459999396466, 0.43329529999755323, 0.45050849999825004, 0.466607299997122, 0.48319469999114517, 0.5000601999927312, 0.5166513000003761, 0.5332283999887295, 0.5504738999879919, 0.5667813999898499, 0.583067999992636, 0.5998896999954013, 0.6165048999973806, 0.6333551999996416, 0.6510018999979366, 0.6663648999965517, 0.682607899987488, 0.6991370999894571, 0.7158443999942392, 0.7324829999997746, 0.7491465999919455, 0.7657523999951081, 0.782447499994305, 0.7991098999918904, 0.8156830999942031, 0.8329077999951551, 0.8491168999898946, 0.8669630999938818, 0.8834926999988966, 0.8997189999936381, 0.9163708999985829, 0.9328820999944583, 0.9498343999875942, 0.9663232999882894, 0.9828610999975353]",0.8588354099920252,None,62.100487200004864,None,62.100487200004864,None,62.100487200004864,None,62.100487200004864,62.60622699999658,62.100487200004864,None,,,,,,,,,,,,,,,,,,,,,,,,,,,,,,,0,001,2020_Oct_14_1346,vm_20xx,2020.2.4,60.10980859650604,
-0.3,-0.3,0,,,,,,,,,0,0,0,0,0,1,1,14,,,,,,,,,,,,,,,,,,,,,,,,,,,,,,,,,,,,,,,,,,,63.092078800007585,None,63.092078800007585,None,64.38779049999721,None,63.092078800007585,None,"[0.0, 0.0, 0.0, 0.0, 0.0, 0.0, 0.0, 0.0, 0.0, 0.0, 0.0, 0.0, 0.0, 0.0, 0.0, 0.0, 0.0, 0.0, 0.0, 0.0, 0.0, 0.0, 0.0, 0.0, 0.0, 0.0, 0.0, 0.0, 0.0, 0.0, 0.0, 0.0, 0.0, 0.0, 0.0, 0.0, 0.0, 0.0, 0.0, 0.0, 0.01574074074074074, 0.05462962962962963, 0.09907407407407408, 0.12962962962962962, 0.1527777777777778, 0.18055555555555555, 0.22685185185185186, 0.27314814814814814]","[0.0, 0.0, 0.0, 0.0, 0.0, 0.0, 0.0, 0.0, 0.0, 0.0, 0.0, 0.0, 0.0, 0.0, 0.0, 0.0, 0.0, 0.0, 0.0, 0.0, 0.0, 0.0, 0.0, 0.0, 0.0, 0.0, 0.0, 0.0, 0.0, 0.0, 0.0, 0.0, 0.0, 0.0, 0.0, 0.0, 0.0, 0.0, 0.0, 0.0, -0.01574074074074074, -0.05277777777777778, -0.09351851851851851, -0.12685185185185185, -0.15185185185185185, -0.17777777777777778, -0.225, -0.26296296296296295]","[0, 0, 0, 0, 0, 0, 0, 0, 0, 0, 0, 0, 0, 0, 0, 0, 0, 0, 0, 0, 0, 0, 0, 0, 0, 0, 1, 1, 1, 1, 1, 1, 1, 1, 1, 1, 1, 1, 1, 1, 1, 1, 1, 1, 1, 1, 1, 1]","[0, 0, 0, 0, 0, 0, 0, 0, 0, 0, 0, 0, 0, 0, 0, 0, 0, 0, 0, 0, 0, 0, 0, 0, 0, 0, 0, 0, 0, 0, 0, 0, 0, 0, 0, 0, 0, 0, 0, 0, 0, 0, 0, 0, 0, 0, 0, 0]","[0, 0, 0, 0, 0, 0, 0, 0, 0, 0, 0, 0, 0, 0, 0, 0, 0, 0, 0, 0, 0, 0, 0, 0, 0, 0, 0, 0, 0, 0, 0, 0, 0, 0, 0, 0, 0, 0, 0, 0, 0, 0, 0, 0, 0, 0, 0, 0]","[0.0009308000007877126, 0.0174397999944631, 0.033885900003951974, 0.05073879999690689, 0.0673908000026131, 0.08393619999696966, 0.10069399999338202, 0.11738949999562465, 0.1342741999978898, 0.1506150999921374, 0.16740969999227673, 0.1839105999970343, 0.2005873000016436, 0.21723520000523422, 0.23439179999695625, 0.250598099999479, 0.2678866000060225, 0.2844349999941187, 0.30033719999482855, 0.3172283000021707, 0.3338738000020385, 0.35041220000130124, 0.36708850000286475, 0.3838997999991989, 0.40080079999461304, 0.4171356000006199, 0.4349755000002915, 0.44963519999873824, 0.4664022999932058, 0.4831363999983296, 0.4998672999936389, 0.5165546000062022, 0.5331085999932839, 0.5496768000011798, 0.5664210999966599, 0.5832890000019688, 0.5998181000031764, 0.6162715999962529, 0.633123899999191, 0.6495550999970874, 0.6668474000034621, 0.6839995000045747, 0.7002609000046505, 0.7175190999987535, 0.7333880999940448, 0.7501187000016216, 0.7669389999937266, 0.7837249000003794]",1.3198226899985457,None,65.2082412000018,None,65.2082412000018,None,65.2082412000018,None,65.2082412000018,65.71978200000012,65.2082412000018,None,,,,,,,,,,,,,,,,,,,,,,,,,,,,,,,0,001,2020_Oct_14_1346,vm_20xx,2020.2.4,60.10980859650604,
0.3,0.3,0,,,,,,,,,0,0,0,0,0,2,2,0,,,,,,,,,,,,,,,,,,,,,,,,,,,,,,,,,,,,,,,,,,,66.20486410000012,None,66.20486410000012,None,67.66803760000039,None,66.20486410000012,None,"[0.0, 0.0, 0.0, 0.0, 0.0, 0.0, 0.0, 0.0, 0.0, 0.0, 0.0, 0.0, 0.0, 0.0, 0.0, 0.0, 0.0, 0.0, 0.0, 0.0, 0.0, 0.0, 0.0, 0.0, 0.0, 0.0, 0.0, 0.0, 0.0, 0.0, 0.0, 0.0, 0.0, 0.0, 0.0, 0.0, 0.0, 0.0, 0.0, 0.0, 0.0, 0.0, 0.0, -0.023148148148148147, -0.04814814814814815, -0.1175925925925926, -0.14537037037037037, -0.1962962962962963, -0.2212962962962963]","[0.0, 0.0, 0.0, 0.0, 0.0, 0.0, 0.0, 0.0, 0.0, 0.0, 0.0, 0.0, 0.0, 0.0, 0.0, 0.0, 0.0, 0.0, 0.0, 0.0, 0.0, 0.0, 0.0, 0.0, 0.0, 0.0, 0.0, 0.0, 0.0, 0.0, 0.0, 0.0, 0.0, 0.0, 0.0, 0.0, 0.0, 0.0, 0.0, 0.0, 0.0, 0.0, 0.0, 0.025925925925925925, 0.05277777777777778, 0.13796296296296295, 0.16944444444444445, 0.22870370370370371, 0.25925925925925924]","[0, 0, 0, 0, 0, 0, 0, 0, 0, 0, 0, 0, 0, 0, 0, 0, 0, 0, 0, 0, 0, 0, 0, 0, 0, 0, 0, 0, 1, 1, 1, 1, 1, 1, 1, 1, 1, 1, 1, 1, 1, 1, 1, 1, 1, 1, 1, 1, 1]","[0, 0, 0, 0, 0, 0, 0, 0, 0, 0, 0, 0, 0, 0, 0, 0, 0, 0, 0, 0, 0, 0, 0, 0, 0, 0, 0, 0, 0, 0, 0, 0, 0, 0, 0, 0, 0, 0, 0, 0, 0, 0, 0, 0, 0, 0, 0, 0, 0]","[0, 0, 0, 0, 0, 0, 0, 0, 0, 0, 0, 0, 0, 0, 0, 0, 0, 0, 0, 0, 0, 0, 0, 0, 0, 0, 0, 0, 0, 0, 0, 0, 0, 0, 0, 0, 0, 0, 0, 0, 0, 0, 0, 0, 0, 0, 0, 0, 0]","[0.0009288000001106411, 0.017435100002330728, 0.03410860001167748, 0.05072550001204945, 0.06742720000329427, 0.08430620000581257, 0.10097910001059063, 0.11740610000560991, 0.13407550001284108, 0.1506610000069486, 0.16762340000423137, 0.1838871000072686, 0.200737700011814, 0.21726180000405293, 0.23409140000876505, 0.2505820000078529, 0.26715250000415836, 0.28397670001140796, 0.30055160001211334, 0.3171403000014834, 0.3340013999986695, 0.35047960000520106, 0.36714539999957196, 0.38380000001052395, 0.40043780000996776, 0.4170756000094116, 0.4337264000059804, 0.45045020000543445, 0.46847960000741296, 0.48290790000464767, 0.4999738000042271, 0.5164583000005223, 0.5331776000093669, 0.5498812000005273, 0.5664567000058014, 0.5829807000118308, 0.5997573000058765, 0.6164484000037191, 0.6329586000065319, 0.6495687999995425, 0.666338100010762, 0.6830017000029329, 0.6999947000003885, 0.7177789000124903, 0.7334458000113955, 0.7501377000007778, 0.7668167000083486, 0.7837337000091793, 0.8000815999985207]",1.4899833899980877,None,68.50703249999788,None,68.50703249999788,None,68.50703249999788,None,68.50703249999788,69.01673659999506,68.50703249999788,None,,,,,,,,,,,,,,,,,,,,,,,,,,,,,,,0,001,2020_Oct_14_1346,vm_20xx,2020.2.4,60.10980859650604,
0.3,-0.3,0,,,,,,,,,0,0,0,0,0,3,3,7,,,,,,,,,,,,,,,,,,,,,,,,,,,,,,,,,,,,,,,,,,,69.50062970000727,None,69.50062970000727,None,70.29992030000722,None,69.50062970000727,None,"[0.0, 0.0, 0.0, 0.0, 0.0, 0.0, 0.0, 0.0, 0.0, 0.0, 0.0, 0.0, 0.0, 0.0, 0.0, 0.0, 0.0, 0.0, 0.0, 0.0, 0.0, 0.0, 0.0, 0.0, 0.0, 0.0, 0.0, 0.0, 0.0, 0.0, 0.0, 0.0, 0.0, 0.0, 0.0, 0.0, 0.0, 0.0, 0.0, 0.0, 0.0, 0.0, 0.0, 0.0, 0.0, 0.0, 0.0, 0.0, 0.0, 0.020370370370370372, 0.04722222222222222, 0.08888888888888889, 0.11388888888888889, 0.15462962962962962, 0.20462962962962963, 0.22314814814814815, 0.24444444444444444, 0.2740740740740741, 0.2851851851851852]","[0.0, 0.0, 0.0, 0.0, 0.0, 0.0, 0.0, 0.0, 0.0, 0.0, 0.0, 0.0, 0.0, 0.0, 0.0, 0.0, 0.0, 0.0, 0.0, 0.0, 0.0, 0.0, 0.0, 0.0, 0.0, 0.0, 0.0, 0.0, 0.0, 0.0, 0.0, 0.0, 0.0, 0.0, 0.0, 0.0, 0.0, 0.0, 0.0, 0.0, 0.0, 0.0, 0.0, 0.0, 0.0, 0.0, 0.0, 0.0, 0.0, 0.024074074074074074, 0.05277777777777778, 0.09814814814814815, 0.12407407407407407, 0.15925925925925927, 0.20462962962962963, 0.22314814814814815, 0.24259259259259258, 0.2759259259259259, 0.28888888888888886]","[0, 0, 0, 0, 0, 0, 0, 0, 0, 0, 0, 0, 0, 0, 0, 0, 0, 0, 0, 0, 0, 0, 0, 0, 0, 0, 0, 0, 0, 0, 0, 0, 0, 0, 0, 0, 1, 1, 1, 1, 1, 1, 1, 1, 1, 1, 1, 1, 1, 1, 1, 1, 1, 1, 1, 1, 1, 1, 1]","[0, 0, 0, 0, 0, 0, 0, 0, 0, 0, 0, 0, 0, 0, 0, 0, 0, 0, 0, 0, 0, 0, 0, 0, 0, 0, 0, 0, 0, 0, 0, 0, 0, 0, 0, 0, 0, 0, 0, 0, 0, 0, 0, 0, 0, 0, 0, 0, 0, 0, 0, 0, 0, 0, 0, 0, 0, 0, 0]","[0, 0, 0, 0, 0, 0, 0, 0, 0, 0, 0, 0, 0, 0, 0, 0, 0, 0, 0, 0, 0, 0, 0, 0, 0, 0, 0, 0, 0, 0, 0, 0, 0, 0, 0, 0, 0, 0, 0, 0, 0, 0, 0, 0, 0, 0, 0, 0, 0, 0, 0, 0, 0, 0, 0, 0, 0, 0, 0]","[0.002308499999344349, 0.018601200004923157, 0.033058100001653656, 0.05030810000607744, 0.06593320000683889, 0.08275860000867397, 0.09955930001160596, 0.11677760000748094, 0.13262580000446178, 0.14945840000291355, 0.16596389999904204, 0.18271090000052936, 0.1993576000095345, 0.21602820001135115, 0.23271440000098664, 0.24936990000423975, 0.26593000000866596, 0.2826618000108283, 0.29923910000070464, 0.3159505000076024, 0.3326338000042597, 0.3492627000086941, 0.3658249000000069, 0.3827748000039719, 0.3991573000093922, 0.4157687000115402, 0.43263320000551175, 0.4493250000086846, 0.465764799999306, 0.48246290000679437, 0.4990974000102142, 0.5157038000033936, 0.5328146000101697, 0.5490511000098195, 0.5659382000012556, 0.5823129000054905, 0.5990790000068955, 0.614959300000919, 0.6318664999998873, 0.6484637000103248, 0.6652029000106268, 0.6816619000019273, 0.6983610000024782, 0.7149580000113929, 0.7317401000036625, 0.7484754000033718, 0.7649048000021139, 0.7815708999987692, 0.7986755000019912, 0.8166476000042167, 0.8324386000022059, 0.8503015000023879, 0.8653189000033308, 0.882187100010924, 0.8990703000017675, 0.9159242000023369, 0.9322116000112146, 0.9486777999991318, 0.9652457000047434]",0.8252149899926735,None,71.30394900000829,None,71.30394900000829,None,71.30394900000829,None,71.30394900000829,71.81405139999697,71.30394900000829,None,,,,,,,,,,,,,,,,,,,,,,,,,,,,,,,0,001,2020_Oct_14_1346,vm_20xx,2020.2.4,60.10980859650604,
0.3,-0.3,0,,,,,,,,,0,0,0,0,0,4,4,11,,,,,,,,,,,,,,,,,,,,,,,,,,,,,,,,,,,,,,,,,,,72.29899229999864,None,72.29899229999864,None,73.16306540000369,None,72.29899229999864,None,"[0.0, 0.0, 0.0, 0.0, 0.0, 0.0, 0.0, 0.0, 0.0, 0.0, 0.0, 0.0, 0.0, 0.0, 0.0, 0.0, 0.0, 0.0, 0.0, 0.0, 0.0, 0.0, 0.0, 0.0, 0.0, 0.0, 0.0, 0.0, 0.0, 0.0, 0.0, 0.0, 0.0, 0.0, 0.0, 0.0, 0.0, 0.0, 0.0, 0.0, 0.0, 0.0, 0.0, 0.0, 0.0, 0.0, 0.0, 0.0, 0.0, 0.009259259259259259, 0.03888888888888889, 0.08888888888888889, 0.1712962962962963, 0.21296296296296297]","[0.0, 0.0, 0.0, 0.0, 0.0, 0.0, 0.0, 0.0, 0.0, 0.0, 0.0, 0.0, 0.0, 0.0, 0.0, 0.0, 0.0, 0.0, 0.0, 0.0, 0.0, 0.0, 0.0, 0.0, 0.0, 0.0, 0.0, 0.0, 0.0, 0.0, 0.0, 0.0, 0.0, 0.0, 0.0, 0.0, 0.0, 0.0, 0.0, 0.0, 0.0, 0.0, 0.0, 0.0, 0.0, 0.0, 0.0, 0.0, 0.0, 0.01574074074074074, 0.053703703703703705, 0.11944444444444445, 0.22685185185185186, 0.2824074074074074]","[0, 0, 0, 0, 0, 0, 0, 0, 0, 0, 0, 0, 0, 0, 0, 0, 0, 0, 0, 0, 0, 0, 0, 0, 0, 0, 0, 0, 0, 0, 0, 0, 0, 0, 0, 1, 1, 1, 1, 1, 1, 1, 1, 1, 1, 1, 1, 1, 1, 1, 1, 1, 1, 1]","[0, 0, 0, 0, 0, 0, 0, 0, 0, 0, 0, 0, 0, 0, 0, 0, 0, 0, 0, 0, 0, 0, 0, 0, 0, 0, 0, 0, 0, 0, 0, 0, 0, 0, 0, 0, 0, 0, 0, 0, 0, 0, 0, 0, 0, 0, 0, 0, 0, 0, 0, 0, 0, 0]","[0, 0, 0, 0, 0, 0, 0, 0, 0, 0, 0, 0, 0, 0, 0, 0, 0, 0, 0, 0, 0, 0, 0, 0, 0, 0, 0, 0, 0, 0, 0, 0, 0, 0, 0, 0, 0, 0, 0, 0, 0, 0, 0, 0, 0, 0, 0, 0, 0, 0, 0, 0, 0, 0]","[0.000946300002397038, 0.017261600005440414, 0.03431250000721775, 0.051076200004899874, 0.0671106000081636, 0.0838925999996718, 0.10049199999775738, 0.1171708000038052, 0.1338536999974167, 0.15059970000584144, 0.1671173000067938, 0.18376519999583252, 0.20048959999985527, 0.21697059999860357, 0.23383700000704266, 0.25041999999666587, 0.26700069999787956, 0.2837294000055408, 0.3003119000059087, 0.31697660000645556, 0.3336789000022691, 0.3502598000050057, 0.3669839000067441, 0.3835849000024609, 0.4003372000006493, 0.4169006000010995, 0.4335356000083266, 0.45023740000033285, 0.46696910000173375, 0.483508699995582, 0.500196799999685, 0.5167721000034362, 0.5335078000061912, 0.550104800000554, 0.5672511000011582, 0.5846779999992577, 0.5996173000021372, 0.6163270999968518, 0.6328421000071103, 0.6495607999968342, 0.666119700006675, 0.6827285000035772, 0.6995096000027843, 0.7159490000049118, 0.7328608999960124, 0.7494881000020541, 0.7663558000058401, 0.7827202000044053, 0.7993849000049522, 0.8164984000031836, 0.8333327000000281, 0.850145699994755, 0.866731100002653, 0.8844358000060311]",0.8907760900037829,None,74.08381880000525,None,74.08381880000525,None,74.08381880000525,None,74.08381880000525,74.59500319999643,74.08381880000525,None,,,,,,,,,,,,,,,,,,,,,,,,,,,,,,,0,001,2020_Oct_14_1346,vm_20xx,2020.2.4,60.10980859650604,
0.3,-0.3,0,,,,,,,,,0,0,0,0,0,5,5,3,,,,,,,,,,,,,,,,,,,,,,,,,,,,,,,,,,,,,,,,,,,75.07905260000553,None,75.07905260000553,None,76.30989309999859,None,75.07905260000553,None,"[0.0, 0.0, 0.0, 0.0, 0.0, 0.0, 0.0, 0.0, 0.0, 0.0, 0.0, 0.0, 0.0, 0.0, 0.0, 0.0, 0.0, 0.0, 0.0, 0.0, 0.0, 0.0, 0.0, 0.0, 0.0, 0.0, 0.0, 0.0, 0.0, 0.0, 0.0, 0.0, 0.0, 0.0, 0.0, 0.0, 0.0, 0.0, 0.0, 0.0, 0.0, 0.0, 0.0, 0.0, 0.0, 0.0, 0.007407407407407408, 0.03888888888888889, 0.08055555555555556, 0.11018518518518519, 0.14074074074074075, 0.16111111111111112, 0.19722222222222222, 0.2212962962962963, 0.23796296296296296, 0.25833333333333336, 0.2833333333333333, 0.2962962962962963, 0.3074074074074074, 0.31851851851851853, 0.3333333333333333]","[0.0, 0.0, 0.0, 0.0, 0.0, 0.0, 0.0, 0.0, 0.0, 0.0, 0.0, 0.0, 0.0, 0.0, 0.0, 0.0, 0.0, 0.0, 0.0, 0.0, 0.0, 0.0, 0.0, 0.0, 0.0, 0.0, 0.0, 0.0, 0.0, 0.0, 0.0, 0.0, 0.0, 0.0, 0.0, 0.0, 0.0, 0.0, 0.0, 0.0, 0.0, 0.0, 0.0, 0.0, 0.0, 0.0, 0.006481481481481481, 0.026851851851851852, 0.05462962962962963, 0.075, 0.09444444444444444, 0.10648148148148148, 0.13055555555555556, 0.14722222222222223, 0.15925925925925927, 0.17222222222222222, 0.18796296296296297, 0.19814814814814816, 0.20555555555555555, 0.2175925925925926, 0.23148148148148148]","[0, 0, 0, 0, 0, 0, 0, 0, 0, 0, 0, 0, 0, 0, 0, 0, 0, 0, 0, 0, 0, 0, 0, 0, 0, 0, 0, 0, 0, 0, 0, 0, 1, 1, 1, 1, 1, 1, 1, 1, 1, 1, 1, 1, 1, 1, 1, 1, 1, 1, 1, 1, 1, 1, 1, 1, 1, 1, 1, 1, 1]","[0, 0, 0, 0, 0, 0, 0, 0, 0, 0, 0, 0, 0, 0, 0, 0, 0, 0, 0, 0, 0, 0, 0, 0, 0, 0, 0, 0, 0, 0, 0, 0, 0, 0, 0, 0, 0, 0, 0, 0, 0, 0, 0, 0, 0, 0, 0, 0, 0, 0, 0, 0, 0, 0, 0, 0, 0, 0, 0, 0, 0]","[0, 0, 0, 0, 0, 0, 0, 0, 0, 0, 0, 0, 0, 0, 0, 0, 0, 0, 0, 0, 0, 0, 0, 0, 0, 0, 0, 0, 0, 0, 0, 0, 0, 0, 0, 0, 0, 0, 0, 0, 0, 0, 0, 0, 0, 0, 0, 0, 0, 0, 0, 0, 0, 0, 0, 0, 0, 0, 0, 0, 0]","[0.0009310000023106113, 0.01742799999192357, 0.03412479998951312, 0.050810300002922304, 0.06737710000015795, 0.08404879999579862, 0.1012198999960674, 0.11735000000044238, 0.1339912999974331, 0.15069939999375492, 0.16732100000081118, 0.18397459998959675, 0.2006548999925144, 0.21741509999264963, 0.23392410000087693, 0.25055820000125095, 0.2674371000030078, 0.28407480000169016, 0.30048429999442305, 0.31753659999230877, 0.3337961999932304, 0.3504402999969898, 0.36725309999019373, 0.3838426000002073, 0.4004304999980377, 0.4171918999927584, 0.4337171999941347, 0.4507134000014048, 0.4672514999983832, 0.48377700000128243, 0.5002805999974953, 0.5172656999930041, 0.5351034999912372, 0.5496527999930549, 0.5665843000024324, 0.5830759999953443, 0.5997537999937776, 0.6164342999982182, 0.6329949999926612, 0.6497197999997297, 0.6664012999972329, 0.6829865999898175, 0.6995901999907801, 0.7166078000009293, 0.7331909999920754, 0.749621399998432, 0.7668779999949038, 0.7835521999950288, 0.800022399998852, 0.8166597999952501, 0.8335224000038579, 0.850131400002283, 0.8668593999900622, 0.8831915999908233, 0.9000304999935906, 0.9174173999927007, 0.9335428999911528, 0.950978099994245, 0.967074699990917, 0.9832896000007167, 0.9997221999947214]",1.2567383900022833,None,77.33385029999772,None,77.33385029999772,None,77.33385029999772,None,77.33385029999772,77.84167219999654,77.33385029999772,None,,,,,,,,,,,,,,,,,,,,,,,,,,,,,,,0,001,2020_Oct_14_1346,vm_20xx,2020.2.4,60.10980859650604,
-0.3,0.3,0,,,,,,,,,0,0,0,0,0,6,6,13,,,,,,,,,,,,,,,,,,,,,,,,,,,,,,,,,,,,,,,,,,,78.34199580000131,None,78.34199580000131,None,79.39038599999913,None,78.34199580000131,None,"[0.0, 0.0, 0.0, 0.0, 0.0, 0.0, 0.0, 0.0, 0.0, 0.0, 0.0, 0.0, 0.0, 0.0, 0.0, 0.0, 0.0, 0.0, 0.0, 0.0, 0.0, 0.0, 0.0, 0.0, 0.0, 0.0, 0.0, 0.0, 0.0, 0.0, 0.0, 0.0, 0.0, 0.0, 0.0, 0.0, 0.0, 0.0, 0.0, 0.0, 0.0, 0.0, 0.0, 0.0, 0.0, 0.0, 0.0, 0.0, -0.008333333333333333, -0.03518518518518519, -0.05925925925925926, -0.07962962962962963, -0.10462962962962963, -0.14444444444444443, -0.175, -0.2, -0.2222222222222222, -0.25555555555555554, -0.2833333333333333]","[0.0, 0.0, 0.0, 0.0, 0.0, 0.0, 0.0, 0.0, 0.0, 0.0, 0.0, 0.0, 0.0, 0.0, 0.0, 0.0, 0.0, 0.0, 0.0, 0.0, 0.0, 0.0, 0.0, 0.0, 0.0, 0.0, 0.0, 0.0, 0.0, 0.0, 0.0, 0.0, 0.0, 0.0, 0.0, 0.0, 0.0, 0.0, 0.0, 0.0, 0.0, 0.0, 0.0, 0.0, 0.0, 0.0, 0.0, 0.0, -0.013888888888888888, -0.04537037037037037, -0.075, -0.0962962962962963, -0.1175925925925926, -0.16203703703703703, -0.18888888888888888, -0.20833333333333334, -0.23055555555555557, -0.2638888888888889, -0.2916666666666667]","[0, 0, 0, 0, 0, 0, 0, 0, 0, 0, 0, 0, 0, 0, 0, 0, 0, 0, 0, 0, 0, 0, 0, 0, 0, 0, 0, 0, 0, 0, 0, 0, 0, 0, 1, 1, 1, 1, 1, 1, 1, 1, 1, 1, 1, 1, 1, 1, 1, 1, 1, 1, 1, 1, 1, 1, 1, 1, 1]","[0, 0, 0, 0, 0, 0, 0, 0, 0, 0, 0, 0, 0, 0, 0, 0, 0, 0, 0, 0, 0, 0, 0, 0, 0, 0, 0, 0, 0, 0, 0, 0, 0, 0, 0, 0, 0, 0, 0, 0, 0, 0, 0, 0, 0, 0, 0, 0, 0, 0, 0, 0, 0, 0, 0, 0, 0, 0, 0]","[0, 0, 0, 0, 0, 0, 0, 0, 0, 0, 0, 0, 0, 0, 0, 0, 0, 0, 0, 0, 0, 0, 0, 0, 0, 0, 0, 0, 0, 0, 0, 0, 0, 0, 0, 0, 0, 0, 0, 0, 0, 0, 0, 0, 0, 0, 0, 0, 0, 0, 0, 0, 0, 0, 0, 0, 0, 0, 0]","[0.0009295999916503206, 0.017409699998097494, 0.034551899996586144, 0.05070779999368824, 0.06749409998883493, 0.08426950000284705, 0.10065989999566227, 0.11734729999443516, 0.13403380000090692, 0.15068520000204444, 0.16726979998929892, 0.18402259999129456, 0.20061030000215396, 0.2171457999938866, 0.23406689999683294, 0.25054870000167284, 0.2671259999915492, 0.28387329999532085, 0.30048779999196995, 0.31713440000021365, 0.3341131999914069, 0.35039120000146795, 0.367700299990247, 0.3836876999994274, 0.4004036999976961, 0.4170863999897847, 0.4337787999975262, 0.4503569999942556, 0.4669469999935245, 0.4837152999971295, 0.5003042000025744, 0.5173206999897957, 0.5336258000024827, 0.5502575999998953, 0.5680065999913495, 0.5830800999974599, 0.5996749999903841, 0.6162817000003997, 0.6331355000002077, 0.6495651000004727, 0.6663256000028923, 0.683070899991435, 0.6996770999976434, 0.7162061999988509, 0.7330661000014516, 0.7495583999989321, 0.7663229000027059, 0.7833413999906043, 0.8000638999947114, 0.8165672999894014, 0.834146299996064, 0.8499840000004042, 0.8667768000013893, 0.8832324999966659, 0.900200699994457, 0.916455099999439, 0.9357213999901433, 0.9559800999995787, 0.9707684000022709]",1.073959190005553,None,80.39735070000461,None,80.39735070000461,None,80.39735070000461,None,80.39735070000461,80.90558210000745,80.39735070000461,None,,,,,,,,,,,,,,,,,,,,,,,,,,,,,,,0,001,2020_Oct_14_1346,vm_20xx,2020.2.4,60.10980859650604,
-0.3,-0.3,0,,,,,,,,,0,0,0,0,0,7,7,2,,,,,,,,,,,,,,,,,,,,,,,,,,,,,,,,,,,,,,,,,,,81.39085049999994,None,81.39085049999994,None,81.95457770000212,None,81.39085049999994,None,"[0.0, 0.0, 0.0, 0.0, 0.0, 0.0, 0.0, 0.0, 0.0, 0.0, 0.0, 0.0, 0.0, 0.0, 0.0, 0.0, 0.0, 0.0, 0.0, 0.0, 0.0, 0.0, 0.0, 0.0, 0.0, 0.0, 0.0, 0.0, 0.0, 0.0, 0.0, 0.0, 0.0, 0.0, 0.0, 0.0, 0.0, 0.0, 0.0, 0.0, 0.0, 0.0, 0.0, 0.0, 0.0, 0.0, 0.0, 0.0, 0.0, 0.0, 0.006481481481481481, 0.03796296296296296, 0.06574074074074074, 0.08703703703703704, 0.10740740740740741, 0.12407407407407407, 0.1388888888888889, 0.15185185185185185, 0.17962962962962964, 0.1962962962962963, 0.21203703703703702, 0.22870370370370371, 0.25462962962962965]","[0.0, 0.0, 0.0, 0.0, 0.0, 0.0, 0.0, 0.0, 0.0, 0.0, 0.0, 0.0, 0.0, 0.0, 0.0, 0.0, 0.0, 0.0, 0.0, 0.0, 0.0, 0.0, 0.0, 0.0, 0.0, 0.0, 0.0, 0.0, 0.0, 0.0, 0.0, 0.0, 0.0, 0.0, 0.0, 0.0, 0.0, 0.0, 0.0, 0.0, 0.0, 0.0, 0.0, 0.0, 0.0, 0.0, 0.0, 0.0, 0.0, 0.0, -0.009259259259259259, -0.049074074074074076, -0.07962962962962963, -0.10925925925925926, -0.13796296296296295, -0.16018518518518518, -0.18611111111111112, -0.20277777777777778, -0.23703703703703705, -0.25925925925925924, -0.27685185185185185, -0.29259259259259257, -0.325]","[0, 0, 0, 0, 0, 0, 0, 0, 0, 0, 0, 0, 0, 0, 0, 0, 0, 0, 0, 0, 0, 0, 0, 0, 0, 0, 0, 0, 0, 0, 0, 0, 0, 0, 0, 0, 1, 1, 1, 1, 1, 1, 1, 1, 1, 1, 1, 1, 1, 1, 1, 1, 1, 1, 1, 1, 1, 1, 1, 1, 1, 1, 1]","[0, 0, 0, 0, 0, 0, 0, 0, 0, 0, 0, 0, 0, 0, 0, 0, 0, 0, 0, 0, 0, 0, 0, 0, 0, 0, 0, 0, 0, 0, 0, 0, 0, 0, 0, 0, 0, 0, 0, 0, 0, 0, 0, 0, 0, 0, 0, 0, 0, 0, 0, 0, 0, 0, 0, 0, 0, 0, 0, 0, 0, 0, 0]","[0, 0, 0, 0, 0, 0, 0, 0, 0, 0, 0, 0, 0, 0, 0, 0, 0, 0, 0, 0, 0, 0, 0, 0, 0, 0, 0, 0, 0, 0, 0, 0, 0, 0, 0, 0, 0, 0, 0, 0, 0, 0, 0, 0, 0, 0, 0, 0, 0, 0, 0, 0, 0, 0, 0, 0, 0, 0, 0, 0, 0, 0, 0]","[0.0009251000010408461, 0.01746139999886509, 0.03477589999965858, 0.050534499998320825, 0.06746029999339953, 0.08418330000131391, 0.10067299999354873, 0.11740829999325797, 0.13409049999609124, 0.15076869999757037, 0.16730279999319464, 0.1840708999952767, 0.20088770000438672, 0.2172067000064999, 0.2339700000011362, 0.25047290000657085, 0.2672013999981573, 0.28383869999379385, 0.30060170000069775, 0.3172980999952415, 0.3339356999931624, 0.35047960000520106, 0.3669733999995515, 0.38387689999944996, 0.4003469000017503, 0.41710999999486376, 0.4337978999974439, 0.4503285999962827, 0.4670479000051273, 0.48376200000348035, 0.5002663000050234, 0.5170179999986431, 0.5337177000037627, 0.5506349000061164, 0.5674356999952579, 0.5835932000045432, 0.6000542999972822, 0.6163271999976132, 0.633041900000535, 0.6496404000063194, 0.6664516000018921, 0.6837384999962524, 0.6997221000056015, 0.7164427999960026, 0.7330170000059297, 0.7494791000062833, 0.7665923000022303, 0.7829163999995217, 0.799415700006648, 0.8164019999967422, 0.8335054000053788, 0.850001600003452, 0.8671147999993991, 0.8833811999938916, 0.9000218000001041, 0.9171399000042584, 0.9332843000011053, 0.9502193999942392, 0.9664105999981984, 0.9840452000062214, 0.9999045000004116, 1.016664299997501, 1.0334335999941686]",0.590918790010619,None,83.02477709999948,None,83.02477709999948,None,83.02477709999948,None,83.02477709999948,83.53651099999843,83.02477709999948,None,,,,,,,,,,,,,,,,,,,,,,,,,,,,,,,0,001,2020_Oct_14_1346,vm_20xx,2020.2.4,60.10980859650604,
0.3,0.3,0,,,,,,,,,0,0,0,0,0,8,8,12,,,,,,,,,,,,,,,,,,,,,,,,,,,,,,,,,,,,,,,,,,,84.02222840000468,None,84.02222840000468,None,84.96837050000613,None,84.02222840000468,None,"[0.0, 0.0, 0.0, 0.0, 0.0, 0.0, 0.0, 0.0, 0.0, 0.0, 0.0, 0.0, 0.0, 0.0, 0.0, 0.0, 0.0, 0.0, 0.0, 0.0, 0.0, 0.0, 0.0, 0.0, 0.0, 0.0, 0.0, 0.0, 0.0, 0.0, 0.0, 0.0, 0.0, 0.0, 0.0, 0.0, 0.0, 0.0, 0.0, 0.0, 0.0, 0.0, 0.0, 0.0, -0.016666666666666666, -0.041666666666666664, -0.07314814814814814, -0.1175925925925926, -0.1527777777777778, -0.17592592592592593, -0.1962962962962963, -0.22592592592592592, -0.24074074074074073, -0.24814814814814815, -0.25555555555555554, -0.2657407407407407, -0.2722222222222222]","[0.0, 0.0, 0.0, 0.0, 0.0, 0.0, 0.0, 0.0, 0.0, 0.0, 0.0, 0.0, 0.0, 0.0, 0.0, 0.0, 0.0, 0.0, 0.0, 0.0, 0.0, 0.0, 0.0, 0.0, 0.0, 0.0, 0.0, 0.0, 0.0, 0.0, 0.0, 0.0, 0.0, 0.0, 0.0, 0.0, 0.0, 0.0, 0.0, 0.0, 0.0, 0.0, 0.0, 0.0, 0.026851851851851852, 0.049074074074074076, 0.08611111111111111, 0.13425925925925927, 0.17222222222222222, 0.20185185185185187, 0.2212962962962963, 0.25277777777777777, 0.2712962962962963, 0.2824074074074074, 0.29074074074074074, 0.30277777777777776, 0.3101851851851852]","[0, 0, 0, 0, 0, 0, 0, 0, 0, 0, 0, 0, 0, 0, 0, 0, 0, 0, 0, 0, 0, 0, 0, 0, 0, 0, 0, 0, 0, 1, 1, 1, 1, 1, 1, 1, 1, 1, 1, 1, 1, 1, 1, 1, 1, 1, 1, 1, 1, 1, 1, 1, 1, 1, 1, 1, 1]","[0, 0, 0, 0, 0, 0, 0, 0, 0, 0, 0, 0, 0, 0, 0, 0, 0, 0, 0, 0, 0, 0, 0, 0, 0, 0, 0, 0, 0, 0, 0, 0, 0, 0, 0, 0, 0, 0, 0, 0, 0, 0, 0, 0, 0, 0, 0, 0, 0, 0, 0, 0, 0, 0, 0, 0, 0]","[0, 0, 0, 0, 0, 0, 0, 0, 0, 0, 0, 0, 0, 0, 0, 0, 0, 0, 0, 0, 0, 0, 0, 0, 0, 0, 0, 0, 0, 0, 0, 0, 0, 0, 0, 0, 0, 0, 0, 0, 0, 0, 0, 0, 0, 0, 0, 0, 0, 0, 0, 0, 0, 0, 0, 0, 0]","[0.0009341999975731596, 0.017537599997012876, 0.03435820000595413, 0.05075929999293294, 0.06747130000439938, 0.08409740000206511, 0.10079739999491721, 0.11767180000606459, 0.13412659999448806, 0.15074009999807458, 0.1674940999946557, 0.18409349999274127, 0.20050310000078753, 0.21740589999535587, 0.23402139999961946, 0.2505481999978656, 0.26731749999453314, 0.2840299999952549, 0.3005341999960365, 0.3179074999934528, 0.33394110000517685, 0.3505232000024989, 0.36722759999975096, 0.3839101000048686, 0.400454600006924, 0.4173263999982737, 0.43385240000498015, 0.450352700005169, 0.4669877999986056, 0.48332440000376664, 0.49983859999338165, 0.5165738999930909, 0.5332288000063272, 0.5498393000016222, 0.5664009000029182, 0.5830064000037964, 0.5996293000061996, 0.6164600000047358, 0.6330387000052724, 0.6497169999929611, 0.6664916000008816, 0.6830959999933839, 0.6997586999932537, 0.7168307999963872, 0.7336853000015253, 0.7509523000044283, 0.76741509999556, 0.7838193000061437, 0.8009898000018438, 0.8169156999938423, 0.8335047000000486, 0.8501667999953497, 0.8669423999963328, 0.8832716000033543, 0.9003167000046233, 0.9168380000046454, 0.9345537000044715]",0.9718879900028696,None,85.92716550000478,None,85.92716550000478,None,85.92716550000478,None,85.92716550000478,86.43362160000834,85.92716550000478,None,,,,,,,,,,,,,,,,,,,,,,,,,,,,,,,0,001,2020_Oct_14_1346,vm_20xx,2020.2.4,60.10980859650604,
0.3,0.3,0,,,,,,,,,0,0,0,0,0,9,9,4,,,,,,,,,,,,,,,,,,,,,,,,,,,,,,,,,,,,,,,,,,,86.93426550000731,None,86.93426550000731,None,87.86579460000212,None,86.93426550000731,None,"[0.0, 0.0, 0.0, 0.0, 0.0, 0.0, 0.0, 0.0, 0.0, 0.0, 0.0, 0.0, 0.0, 0.0, 0.0, 0.0, 0.0, 0.0, 0.0, 0.0, 0.0, 0.0, 0.0, 0.0, 0.0, 0.0, 0.0, 0.0, 0.0, 0.0, 0.0, 0.0, 0.0, 0.0, 0.0, 0.0, 0.0, 0.0, 0.0, 0.0, 0.0, 0.0, 0.0, -0.022222222222222223, -0.07592592592592592, -0.11851851851851852, -0.14629629629629629, -0.19444444444444445, -0.22685185185185186, -0.25092592592592594, -0.2740740740740741, -0.2962962962962963]","[0.0, 0.0, 0.0, 0.0, 0.0, 0.0, 0.0, 0.0, 0.0, 0.0, 0.0, 0.0, 0.0, 0.0, 0.0, 0.0, 0.0, 0.0, 0.0, 0.0, 0.0, 0.0, 0.0, 0.0, 0.0, 0.0, 0.0, 0.0, 0.0, 0.0, 0.0, 0.0, 0.0, 0.0, 0.0, 0.0, 0.0, 0.0, 0.0, 0.0, 0.0, 0.0, 0.0, 0.021296296296296296, 0.07407407407407407, 0.11203703703703703, 0.13518518518518519, 0.18518518518518517, 0.21666666666666667, 0.2462962962962963, 0.2712962962962963, 0.2935185185185185]","[0, 0, 0, 0, 0, 0, 0, 0, 0, 0, 0, 0, 0, 0, 0, 0, 0, 0, 0, 0, 0, 0, 0, 0, 0, 0, 0, 1, 1, 1, 1, 1, 1, 1, 1, 1, 1, 1, 1, 1, 1, 1, 1, 1, 1, 1, 1, 1, 1, 1, 1, 1]","[0, 0, 0, 0, 0, 0, 0, 0, 0, 0, 0, 0, 0, 0, 0, 0, 0, 0, 0, 0, 0, 0, 0, 0, 0, 0, 0, 0, 0, 0, 0, 0, 0, 0, 0, 0, 0, 0, 0, 0, 0, 0, 0, 0, 0, 0, 0, 0, 0, 0, 0, 0]","[0, 0, 0, 0, 0, 0, 0, 0, 0, 0, 0, 0, 0, 0, 0, 0, 0, 0, 0, 0, 0, 0, 0, 0, 0, 0, 0, 0, 0, 0, 0, 0, 0, 0, 0, 0, 0, 0, 0, 0, 0, 0, 0, 0, 0, 0, 0, 0, 0, 0, 0, 0]","[0.0009261999948648736, 0.017796100000850856, 0.03401649999432266, 0.050950899996678345, 0.06727359999786131, 0.08403889999317471, 0.10057049999886658, 0.11722859999281354, 0.13388629999826662, 0.15059710000059567, 0.1671574999927543, 0.18393030000152066, 0.2005522999970708, 0.2171162999875378, 0.2340464000008069, 0.25043829999049194, 0.26710739999543875, 0.2838735999976052, 0.30042580000008456, 0.3171784000005573, 0.334290399987367, 0.35042309999698773, 0.3669666999921901, 0.38372069998877123, 0.40029320000030566, 0.41700889999629, 0.43385099999431986, 0.45244879998790566, 0.4662289999978384, 0.48316269999486394, 0.49972979999438394, 0.5162099000008311, 0.5331026999920141, 0.5498615999968024, 0.566302999999607, 0.5829006999992998, 0.5996496000007028, 0.6161052999959793, 0.6329508999915561, 0.6495866999903228, 0.6661517999891657, 0.6828304999944521, 0.6999628999910783, 0.7168583999882685, 0.734261499994318, 0.7508124000014504, 0.7671931999939261, 0.7835569999879226, 0.8007344999932684, 0.8167123999883188, 0.8333241999935126, 0.8501305999961914]",0.9574158899922622,None,88.75110380000842,None,88.75110380000842,None,88.75110380000842,None,88.75110380000842,89.26430890000483,88.75110380000842,None,,,,,,,,,,,,,,,,,,,,,,,,,,,,,,,0,001,2020_Oct_14_1346,vm_20xx,2020.2.4,60.10980859650604,
-0.3,0.3,0,,,,,,,,,0,0,0,0,0,10,10,5,,,,,,,,,,,,,,,,,,,,,,,,,,,,,,,,,,,,,,,,,,,89.748319300008,None,89.748319300008,None,91.06271490000654,None,89.748319300008,None,"[0.0, 0.0, 0.0, 0.0, 0.0, 0.0, 0.0, 0.0, 0.0, 0.0, 0.0, 0.0, 0.0, 0.0, 0.0, 0.0, 0.0, 0.0, 0.0, 0.0, 0.0, 0.0, 0.0, 0.0, 0.0, 0.0, 0.0, 0.0, 0.0, 0.0, 0.0, 0.0, 0.0, 0.0, 0.0, 0.0, 0.0, 0.0, 0.0, 0.0, 0.0, 0.0, -0.009259259259259259, -0.021296296296296296, -0.03333333333333333, -0.04351851851851852, -0.06944444444444445, -0.08425925925925926, -0.09537037037037037, -0.11851851851851852, -0.13240740740740742, -0.14814814814814814, -0.1638888888888889, -0.19166666666666668, -0.20925925925925926, -0.22407407407407406, -0.23796296296296296]","[0.0, 0.0, 0.0, 0.0, 0.0, 0.0, 0.0, 0.0, 0.0, 0.0, 0.0, 0.0, 0.0, 0.0, 0.0, 0.0, 0.0, 0.0, 0.0, 0.0, 0.0, 0.0, 0.0, 0.0, 0.0, 0.0, 0.0, 0.0, 0.0, 0.0, 0.0, 0.0, 0.0, 0.0, 0.0, 0.0, 0.0, 0.0, 0.0, 0.0, 0.0, 0.0, -0.03148148148148148, -0.06018518518518518, -0.08611111111111111, -0.10555555555555556, -0.14907407407407408, -0.16944444444444445, -0.18425925925925926, -0.21481481481481482, -0.23148148148148148, -0.24722222222222223, -0.2611111111111111, -0.29074074074074074, -0.30833333333333335, -0.32222222222222224, -0.33611111111111114]","[0, 0, 0, 0, 0, 0, 0, 0, 0, 0, 0, 0, 0, 0, 0, 0, 0, 0, 0, 0, 0, 0, 0, 0, 0, 0, 0, 0, 0, 1, 1, 1, 1, 1, 1, 1, 1, 1, 1, 1, 1, 1, 1, 1, 1, 1, 1, 1, 1, 1, 1, 1, 1, 1, 1, 1, 1]","[0, 0, 0, 0, 0, 0, 0, 0, 0, 0, 0, 0, 0, 0, 0, 0, 0, 0, 0, 0, 0, 0, 0, 0, 0, 0, 0, 0, 0, 0, 0, 0, 0, 0, 0, 0, 0, 0, 0, 0, 0, 0, 0, 0, 0, 0, 0, 0, 0, 0, 0, 0, 0, 0, 0, 0, 0]","[0, 0, 0, 0, 0, 0, 0, 0, 0, 0, 0, 0, 0, 0, 0, 0, 0, 0, 0, 0, 0, 0, 0, 0, 0, 0, 0, 0, 0, 0, 0, 0, 0, 0, 0, 0, 0, 0, 0, 0, 0, 0, 0, 0, 0, 0, 0, 0, 0, 0, 0, 0, 0, 0, 0, 0, 0]","[0.0009283999970648438, 0.017438199996831827, 0.03398199999355711, 0.050735099997837096, 0.06752449998748489, 0.08399980000103824, 0.10106249999080319, 0.1175189999921713, 0.13398099999176338, 0.15062439999019261, 0.16734399998676963, 0.18387939999229275, 0.20057549999910407, 0.21733029998722486, 0.23390729998936877, 0.2505810000002384, 0.26723739999579266, 0.2837959999887971, 0.3005241999926511, 0.317318699992029, 0.3340176999918185, 0.35038709999935236, 0.3671656999940751, 0.3836888999940129, 0.40052559999458026, 0.4171139999962179, 0.43360089999623597, 0.45093249999627005, 0.4670425999938743, 0.4851431999995839, 0.49995579999813344, 0.5164790999988327, 0.5329985999997007, 0.5498004999972181, 0.5666898999916157, 0.5831400999886682, 0.5998084999882849, 0.6164841999998316, 0.6329686999961268, 0.6499055999884149, 0.6664366999902995, 0.6834134999953676, 0.700087799996254, 0.7175716999918222, 0.7333262999891303, 0.7502660999889486, 0.7675658999942243, 0.783296399997198, 0.8001336999877822, 0.8167328999988968, 0.8341419999924256, 0.8505050999956438, 0.8669383999949787, 0.883584899987909, 0.9000082999991719, 0.9167595999897458, 0.9334670999960508]",1.3402108900190797,None,92.03230700000131,None,92.03230700000131,None,92.03230700000131,None,92.03230700000131,92.54453880000801,92.03230700000131,None,,,,,,,,,,,,,,,,,,,,,,,,,,,,,,,0,001,2020_Oct_14_1346,vm_20xx,2020.2.4,60.10980859650604,
-0.3,-0.3,0,,,,,,,,,0,0,0,0,0,11,11,10,,,,,,,,,,,,,,,,,,,,,,,,,,,,,,,,,,,,,,,,,,,93.0289177000086,None,93.0289177000086,None,93.87672040000325,None,93.0289177000086,None,"[0.0, 0.0, 0.0, 0.0, 0.0, 0.0, 0.0, 0.0, 0.0, 0.0, 0.0, 0.0, 0.0, 0.0, 0.0, 0.0, 0.0, 0.0, 0.0, 0.0, 0.0, 0.0, 0.0, 0.0, 0.0, 0.0, 0.0, 0.0, 0.0, 0.0, 0.0, 0.0, 0.0, 0.0, 0.0, 0.0, 0.0, 0.0, 0.0, 0.0, 0.0, 0.0, 0.0, 0.0, 0.0, 0.0, 0.0, 0.014814814814814815, 0.026851851851851852, 0.053703703703703705, 0.07962962962962963, 0.09444444444444444, 0.11666666666666667, 0.1398148148148148, 0.1638888888888889, 0.1824074074074074, 0.1925925925925926, 0.20277777777777778, 0.22592592592592592, 0.24074074074074073]","[0.0, 0.0, 0.0, 0.0, 0.0, 0.0, 0.0, 0.0, 0.0, 0.0, 0.0, 0.0, 0.0, 0.0, 0.0, 0.0, 0.0, 0.0, 0.0, 0.0, 0.0, 0.0, 0.0, 0.0, 0.0, 0.0, 0.0, 0.0, 0.0, 0.0, 0.0, 0.0, 0.0, 0.0, 0.0, 0.0, 0.0, 0.0, 0.0, 0.0, 0.0, 0.0, 0.0, 0.0, 0.0, 0.0, 0.0, -0.020370370370370372, -0.03518518518518519, -0.06759259259259259, -0.1, -0.12222222222222222, -0.15462962962962962, -0.1824074074074074, -0.21851851851851853, -0.24444444444444444, -0.2638888888888889, -0.27870370370370373, -0.30833333333333335, -0.325]","[0, 0, 0, 0, 0, 0, 0, 0, 0, 0, 0, 0, 0, 0, 0, 0, 0, 0, 0, 0, 0, 0, 0, 0, 0, 0, 0, 0, 0, 0, 0, 0, 1, 1, 1, 1, 1, 1, 1, 1, 1, 1, 1, 1, 1, 1, 1, 1, 1, 1, 1, 1, 1, 1, 1, 1, 1, 1, 1, 1]","[0, 0, 0, 0, 0, 0, 0, 0, 0, 0, 0, 0, 0, 0, 0, 0, 0, 0, 0, 0, 0, 0, 0, 0, 0, 0, 0, 0, 0, 0, 0, 0, 0, 0, 0, 0, 0, 0, 0, 0, 0, 0, 0, 0, 0, 0, 0, 0, 0, 0, 0, 0, 0, 0, 0, 0, 0, 0, 0, 0]","[0, 0, 0, 0, 0, 0, 0, 0, 0, 0, 0, 0, 0, 0, 0, 0, 0, 0, 0, 0, 0, 0, 0, 0, 0, 0, 0, 0, 0, 0, 0, 0, 0, 0, 0, 0, 0, 0, 0, 0, 0, 0, 0, 0, 0, 0, 0, 0, 0, 0, 0, 0, 0, 0, 0, 0, 0, 0, 0, 0]","[0.0009236999903805554, 0.017574599987710826, 0.03404289999161847, 0.05079249999835156, 0.0674972999986494, 0.08396359998732805, 0.10090520000085235, 0.1174534999881871, 0.13393399999768008, 0.15068889998656232, 0.16733439998643007, 0.18393629998899996, 0.20060559999546967, 0.21739219999290071, 0.23398539998743217, 0.2506635999889113, 0.2672739999979967, 0.28385639999760315, 0.30061199999181554, 0.31746239999483805, 0.3336908999917796, 0.35053539999353234, 0.3671977999911178, 0.3837333999981638, 0.40041599998949096, 0.4171116999932565, 0.4337859999941429, 0.4509743999951752, 0.46711639998829924, 0.48373419999552425, 0.500411199987866, 0.5169867999939015, 0.5363684999902034, 0.5503235999931348, 0.5663577999948757, 0.5829236999998102, 0.5996471999969799, 0.6164917999994941, 0.6328669999929843, 0.6496784999908414, 0.6662658999994164, 0.6829777999955695, 0.6995301999995718, 0.7164617999951588, 0.7329881999903591, 0.7497965999937151, 0.7671811999898637, 0.7836485000007087, 0.8012860999879194, 0.8179922999988776, 0.8340668999881018, 0.8512788999942131, 0.8668082999938633, 0.8841589999938151, 0.9003546999883838, 0.9174191999918548, 0.9336423999920953, 0.9499996999948053, 0.9666937000001781, 0.9833565999870189]",0.8741178900090745,None,94.88463650000631,None,94.88463650000631,None,94.88463650000631,None,94.88463650000631,95.39196449999872,94.88463650000631,None,,,,,,,,,,,,,,,,,,,,,,,,,,,,,,,0,001,2020_Oct_14_1346,vm_20xx,2020.2.4,60.10980859650604,
-0.3,0.3,0,,,,,,,,,0,0,0,0,0,12,12,9,,,,,,,,,,,,,,,,,,,,,,,,,,,,,,,,,,,,,,,,,,,95.89250030000403,None,95.89250030000403,None,96.79067899999791,None,95.89250030000403,None,"[0.0, 0.0, 0.0, 0.0, 0.0, 0.0, 0.0, 0.0, 0.0, 0.0, 0.0, 0.0, 0.0, 0.0, 0.0, 0.0, 0.0, 0.0, 0.0, 0.0, 0.0, 0.0, 0.0, 0.0, 0.0, 0.0, 0.0, 0.0, 0.0, 0.0, 0.0, 0.0, 0.0, 0.0, 0.0, 0.0, 0.0, 0.0, 0.0, 0.0, -0.003703703703703704, -0.019444444444444445, -0.046296296296296294, -0.062037037037037036, -0.08333333333333333, -0.1175925925925926, -0.1388888888888889, -0.16296296296296298, -0.1925925925925926, -0.2212962962962963, -0.24074074074074073, -0.26481481481481484, -0.2814814814814815, -0.3037037037037037, -0.3194444444444444]","[0.0, 0.0, 0.0, 0.0, 0.0, 0.0, 0.0, 0.0, 0.0, 0.0, 0.0, 0.0, 0.0, 0.0, 0.0, 0.0, 0.0, 0.0, 0.0, 0.0, 0.0, 0.0, 0.0, 0.0, 0.0, 0.0, 0.0, 0.0, 0.0, 0.0, 0.0, 0.0, 0.0, 0.0, 0.0, 0.0, 0.0, 0.0, 0.0, 0.0, -0.005555555555555556, -0.021296296296296296, -0.04722222222222222, -0.06018518518518518, -0.07314814814814814, -0.09722222222222222, -0.11296296296296296, -0.13425925925925927, -0.15462962962962962, -0.17962962962962964, -0.19814814814814816, -0.21481481481481482, -0.22870370370370371, -0.25, -0.26851851851851855]","[0, 0, 0, 0, 0, 0, 0, 0, 0, 0, 0, 0, 0, 0, 0, 0, 0, 0, 0, 0, 0, 0, 0, 0, 0, 0, 1, 1, 1, 1, 1, 1, 1, 1, 1, 1, 1, 1, 1, 1, 1, 1, 1, 1, 1, 1, 1, 1, 1, 1, 1, 1, 1, 1, 1]","[0, 0, 0, 0, 0, 0, 0, 0, 0, 0, 0, 0, 0, 0, 0, 0, 0, 0, 0, 0, 0, 0, 0, 0, 0, 0, 0, 0, 0, 0, 0, 0, 0, 0, 0, 0, 0, 0, 0, 0, 0, 0, 0, 0, 0, 0, 0, 0, 0, 0, 0, 0, 0, 0, 0]","[0, 0, 0, 0, 0, 0, 0, 0, 0, 0, 0, 0, 0, 0, 0, 0, 0, 0, 0, 0, 0, 0, 0, 0, 0, 0, 0, 0, 0, 0, 0, 0, 0, 0, 0, 0, 0, 0, 0, 0, 0, 0, 0, 0, 0, 0, 0, 0, 0, 0, 0, 0, 0, 0, 0]","[0.0009465000039199367, 0.0173406999965664, 0.034034099997370504, 0.05068990000290796, 0.06730439999955706, 0.08421380000072531, 0.10049870000511874, 0.11732950000441633, 0.13393270000233315, 0.150549999991199, 0.16727979999268427, 0.1840840999939246, 0.2004813999956241, 0.2173317999986466, 0.23376000000280328, 0.25046609999844804, 0.2670922999968752, 0.2836922999995295, 0.30074299999978393, 0.3171083999914117, 0.33360309999261517, 0.35041349999664817, 0.3671316999971168, 0.38377220000256784, 0.40035110000462737, 0.41703110000526067, 0.43368800000462215, 0.44978680000349414, 0.4664208000031067, 0.4830930000025546, 0.4996551999938674, 0.5164459999941755, 0.5330305999959819, 0.5495175999967614, 0.5665640999941388, 0.5828355999983614, 0.5995889000041643, 0.6162833999987924, 0.6330025999923237, 0.6496192000049632, 0.6668331999971997, 0.6834357000043383, 0.70145500000217, 0.71729200000118, 0.7333590000052936, 0.7501521999947727, 0.7668087999918498, 0.7834987999958685, 0.8003520999918692, 0.8168809999915538, 0.8338739000027999, 0.85022680000111, 0.8665802000032272, 0.8835180000023684, 0.9003187000053003]",0.9238923899974907,None,97.7291322999954,None,97.7291322999954,None,97.7291322999954,None,97.7291322999954,98.23933159999433,97.7291322999954,None,,,,,,,,,,,,,,,,,,,,,,,,,,,,,,,0,001,2020_Oct_14_1346,vm_20xx,2020.2.4,60.10980859650604,
-0.3,-0.3,0,,,,,,,,,0,0,0,0,0,13,13,6,,,,,,,,,,,,,,,,,,,,,,,,,,,,,,,,,,,,,,,,,,,98.72279770000023,None,98.72279770000023,None,99.72162409999873,None,98.72279770000023,None,"[0.0, 0.0, 0.0, 0.0, 0.0, 0.0, 0.0, 0.0, 0.0, 0.0, 0.0, 0.0, 0.0, 0.0, 0.0, 0.0, 0.0, 0.0, 0.0, 0.0, 0.0, 0.0, 0.0, 0.0, 0.0, 0.0, 0.0, 0.0, 0.0, 0.0, 0.0, 0.0, 0.0, 0.0, 0.0, 0.0, 0.0, 0.0, 0.0, 0.0, 0.0, 0.011111111111111112, 0.04351851851851852, 0.06296296296296296, 0.08148148148148149, 0.10092592592592593, 0.11851851851851852, 0.14444444444444443, 0.16296296296296298, 0.18055555555555555, 0.1962962962962963, 0.22037037037037038, 0.23425925925925925, 0.24814814814814815, 0.2601851851851852, 0.2759259259259259, 0.2861111111111111, 0.2962962962962963]","[0.0, 0.0, 0.0, 0.0, 0.0, 0.0, 0.0, 0.0, 0.0, 0.0, 0.0, 0.0, 0.0, 0.0, 0.0, 0.0, 0.0, 0.0, 0.0, 0.0, 0.0, 0.0, 0.0, 0.0, 0.0, 0.0, 0.0, 0.0, 0.0, 0.0, 0.0, 0.0, 0.0, 0.0, 0.0, 0.0, 0.0, 0.0, 0.0, 0.0, 0.0, -0.006481481481481481, -0.032407407407407406, -0.05185185185185185, -0.06759259259259259, -0.08333333333333333, -0.10462962962962963, -0.1287037037037037, -0.14444444444444443, -0.16203703703703703, -0.18055555555555555, -0.20555555555555555, -0.21944444444444444, -0.2324074074074074, -0.24444444444444444, -0.26296296296296295, -0.2722222222222222, -0.2824074074074074]","[0, 0, 0, 0, 0, 0, 0, 0, 0, 0, 0, 0, 0, 0, 0, 0, 0, 0, 0, 0, 0, 0, 0, 0, 0, 0, 1, 1, 1, 1, 1, 1, 1, 1, 1, 1, 1, 1, 1, 1, 1, 1, 1, 1, 1, 1, 1, 1, 1, 1, 1, 1, 1, 1, 1, 1, 1, 1]","[0, 0, 0, 0, 0, 0, 0, 0, 0, 0, 0, 0, 0, 0, 0, 0, 0, 0, 0, 0, 0, 0, 0, 0, 0, 0, 0, 0, 0, 0, 0, 0, 0, 0, 0, 0, 0, 0, 0, 0, 0, 0, 0, 0, 0, 0, 0, 0, 0, 0, 0, 0, 0, 0, 0, 0, 0, 0]","[0, 0, 0, 0, 0, 0, 0, 0, 0, 0, 0, 0, 0, 0, 0, 0, 0, 0, 0, 0, 0, 0, 0, 0, 0, 0, 0, 0, 0, 0, 0, 0, 0, 0, 0, 0, 0, 0, 0, 0, 0, 0, 0, 0, 0, 0, 0, 0, 0, 0, 0, 0, 0, 0, 0, 0, 0, 0]","[0.001090299992938526, 0.01721779999206774, 0.033634499995969236, 0.050403500004904345, 0.06698669999605045, 0.08363700000336394, 0.10022130000288598, 0.11686140000529122, 0.13366740000492427, 0.1502152000030037, 0.16701330000068992, 0.18334869999671355, 0.2001371999940602, 0.21674350000103004, 0.2333608000044478, 0.2500117000017781, 0.26661869999952614, 0.28338979999534786, 0.30003230000147596, 0.3166648000042187, 0.3333559000020614, 0.35066009999718517, 0.3666665000055218, 0.3832828000013251, 0.3999253999936627, 0.416566400002921, 0.4347603999922285, 0.44955940000363626, 0.46593370000482537, 0.48256530000071507, 0.49929510000220034, 0.515878000005614, 0.5326554000057513, 0.5492128000041703, 0.5658903000003193, 0.5826815000036731, 0.5994855000026291, 0.6157041999977082, 0.6325775000004796, 0.6491811000014422, 0.6661592000018572, 0.6855827999970643, 0.7014725000044564, 0.7169552999985171, 0.7333101999975042, 0.7496664999925997, 0.7664404999959515, 0.7827077999972971, 0.7997441000043182, 0.8170893999922555, 0.8330099000013433, 0.8495066000032239, 0.8672493000049144, 0.8826694000017596, 0.8995792999921832, 0.9160106000053929, 0.9333129000006011, 0.9493402999942191]",1.0245232900051633,None,100.70691930000612,None,100.70691930000612,None,100.70691930000612,None,100.70691930000612,101.21987990000343,100.70691930000612,None,,,,,,,,,,,,,,,,,,,,,,,,,,,,,,,0,001,2020_Oct_14_1346,vm_20xx,2020.2.4,60.10980859650604,
0.3,0.3,0,,,,,,,,,0,0,0,0,0,14,14,8,,,,,,,,,,,,,,,,,,,,,,,,,,,,,,,,,,,,,,,,,,,101.70395969999663,None,101.70395969999663,None,102.78522020000673,None,101.70395969999663,None,"[0.0, 0.0, 0.0, 0.0, 0.0, 0.0, 0.0, 0.0, 0.0, 0.0, 0.0, 0.0, 0.0, 0.0, 0.0, 0.0, 0.0, 0.0, 0.0, 0.0, 0.0, 0.0, 0.0, 0.0, 0.0, 0.0, 0.0, 0.0, 0.0, 0.0, 0.0, 0.0, 0.0, 0.0, 0.0, 0.0, 0.0, 0.0, 0.0, 0.0, -0.006481481481481481, -0.044444444444444446, -0.06759259259259259, -0.09351851851851851, -0.11481481481481481, -0.14444444444444443, -0.16574074074074074, -0.18055555555555555, -0.1925925925925926, -0.2111111111111111, -0.22314814814814815, -0.23055555555555557, -0.23796296296296296, -0.24444444444444444, -0.24814814814814815, -0.25277777777777777, -0.2601851851851852, -0.2638888888888889, -0.26944444444444443, -0.27314814814814814]","[0.0, 0.0, 0.0, 0.0, 0.0, 0.0, 0.0, 0.0, 0.0, 0.0, 0.0, 0.0, 0.0, 0.0, 0.0, 0.0, 0.0, 0.0, 0.0, 0.0, 0.0, 0.0, 0.0, 0.0, 0.0, 0.0, 0.0, 0.0, 0.0, 0.0, 0.0, 0.0, 0.0, 0.0, 0.0, 0.0, 0.0, 0.0, 0.0, 0.0, 0.005555555555555556, 0.04259259259259259, 0.06388888888888888, 0.09166666666666666, 0.11944444444444445, 0.14722222222222223, 0.17314814814814813, 0.19166666666666668, 0.20555555555555555, 0.22314814814814815, 0.2351851851851852, 0.2462962962962963, 0.25555555555555554, 0.26666666666666666, 0.27037037037037037, 0.27685185185185185, 0.287962962962963, 0.29259259259259257, 0.30092592592592593, 0.30462962962962964]","[0, 0, 0, 0, 0, 0, 0, 0, 0, 0, 0, 0, 0, 0, 0, 0, 0, 0, 0, 0, 0, 0, 0, 0, 0, 0, 1, 1, 1, 1, 1, 1, 1, 1, 1, 1, 1, 1, 1, 1, 1, 1, 1, 1, 1, 1, 1, 1, 1, 1, 1, 1, 1, 1, 1, 1, 1, 1, 1, 1]","[0, 0, 0, 0, 0, 0, 0, 0, 0, 0, 0, 0, 0, 0, 0, 0, 0, 0, 0, 0, 0, 0, 0, 0, 0, 0, 0, 0, 0, 0, 0, 0, 0, 0, 0, 0, 0, 0, 0, 0, 0, 0, 0, 0, 0, 0, 0, 0, 0, 0, 0, 0, 0, 0, 0, 0, 0, 0, 0, 0]","[0, 0, 0, 0, 0, 0, 0, 0, 0, 0, 0, 0, 0, 0, 0, 0, 0, 0, 0, 0, 0, 0, 0, 0, 0, 0, 0, 0, 0, 0, 0, 0, 0, 0, 0, 0, 0, 0, 0, 0, 0, 0, 0, 0, 0, 0, 0, 0, 0, 0, 0, 0, 0, 0, 0, 0, 0, 0, 0, 0]","[0.0009430999925825745, 0.017013699995004572, 0.03363909998734016, 0.05049989999679383, 0.06723699999565724, 0.0835296000004746, 0.10023979999823496, 0.11680739998701029, 0.13371659998665564, 0.15026369999395683, 0.1667241999966791, 0.18344869998691138, 0.20017249998636544, 0.2166910999949323, 0.23348739999346435, 0.25130459999490995, 0.26657089999935124, 0.2834011999948416, 0.300154599986854, 0.31655589998990763, 0.33339719999639783, 0.3499891999963438, 0.36662289999367204, 0.38321829999040347, 0.3999100999935763, 0.4164883999910671, 0.43329619998985436, 0.44944899999245536, 0.4660180999926524, 0.48274019999371376, 0.4993427999870619, 0.5159869999915827, 0.532506799994735, 0.5493397999962326, 0.5660445999965305, 0.582513299988932, 0.5992399999959162, 0.616055199992843, 0.6326243999938015, 0.6496862999920268, 0.6664115999883506, 0.6831633999972837, 0.7000134999980219, 0.7165176999988034, 0.7336781999911182, 0.749721000000136, 0.7674700999923516, 0.7827517999976408, 0.7999803999991855, 0.8162629999860656, 0.8338134999939939, 0.8496662999968976, 0.8663234999985434, 0.8835655000002589, 0.8993746999913128, 0.9164428999938536, 0.9328941999992821, 0.9494295999902533, 0.966387799999211, 0.9828175000002375]",1.1073116900079185,None,103.80589440000767,None,103.80589440000767,None,103.80589440000767,None,103.80589440000767,104.31691890000366,103.80589440000767,None,,,,,,,,,,,,,,,,,,,,,,,,,,,,,,,0,001,2020_Oct_14_1346,vm_20xx,2020.2.4,60.10980859650604,
0.3,-0.3,0,,,,,,,,,0,0,0,0,0,15,15,15,,,,,,,,,,,,,,,,,,,,,,,,,,,,,,,,,,,,,,,,,,,104.80222979999962,None,104.80222979999962,None,105.34942939999746,None,104.80222979999962,None,"[0.0, 0.0, 0.0, 0.0, 0.0, 0.0, 0.0, 0.0, 0.0, 0.0, 0.0, 0.0, 0.0, 0.0, 0.0, 0.0, 0.0, 0.0, 0.0, 0.0, 0.0, 0.0, 0.0, 0.0, 0.0, 0.0, 0.0, 0.0, 0.0, 0.0, 0.0, 0.0, 0.0, 0.0, 0.0, 0.0, 0.0, 0.0, 0.0, 0.0, 0.0, 0.0, 0.0, 0.0, 0.0, 0.0, 0.0, 0.0, 0.0, 0.0, 0.0, 0.017592592592592594, 0.04259259259259259, 0.06018518518518518, 0.08703703703703704, 0.1111111111111111, 0.13518518518518519, 0.15185185185185185, 0.17777777777777778, 0.1935185185185185, 0.2074074074074074, 0.21574074074074073, 0.22685185185185186, 0.23796296296296296, 0.24722222222222223, 0.25833333333333336, 0.262037037037037, 0.26666666666666666]","[0.0, 0.0, 0.0, 0.0, 0.0, 0.0, 0.0, 0.0, 0.0, 0.0, 0.0, 0.0, 0.0, 0.0, 0.0, 0.0, 0.0, 0.0, 0.0, 0.0, 0.0, 0.0, 0.0, 0.0, 0.0, 0.0, 0.0, 0.0, 0.0, 0.0, 0.0, 0.0, 0.0, 0.0, 0.0, 0.0, 0.0, 0.0, 0.0, 0.0, 0.0, 0.0, 0.0, 0.0, 0.0, 0.0, 0.0, 0.0, 0.0, 0.0, 0.0, 0.026851851851851852, 0.062037037037037036, 0.0824074074074074, 0.11203703703703703, 0.13425925925925927, 0.1527777777777778, 0.16574074074074074, 0.18796296296296297, 0.2037037037037037, 0.2175925925925926, 0.22870370370370371, 0.24259259259259258, 0.2574074074074074, 0.27314814814814814, 0.28888888888888886, 0.2962962962962963, 0.3055555555555556]","[0, 0, 0, 0, 0, 0, 0, 0, 0, 0, 0, 0, 0, 0, 0, 0, 0, 0, 0, 0, 0, 0, 0, 0, 0, 0, 0, 0, 0, 0, 0, 0, 0, 0, 0, 0, 1, 1, 1, 1, 1, 1, 1, 1, 1, 1, 1, 1, 1, 1, 1, 1, 1, 1, 1, 1, 1, 1, 1, 1, 1, 1, 1, 1, 1, 1, 1, 1]","[0, 0, 0, 0, 0, 0, 0, 0, 0, 0, 0, 0, 0, 0, 0, 0, 0, 0, 0, 0, 0, 0, 0, 0, 0, 0, 0, 0, 0, 0, 0, 0, 0, 0, 0, 0, 0, 0, 0, 0, 0, 0, 0, 0, 0, 0, 0, 0, 0, 0, 0, 0, 0, 0, 0, 0, 0, 0, 0, 0, 0, 0, 0, 0, 0, 0, 0, 0]","[0, 0, 0, 0, 0, 0, 0, 0, 0, 0, 0, 0, 0, 0, 0, 0, 0, 0, 0, 0, 0, 0, 0, 0, 0, 0, 0, 0, 0, 0, 0, 0, 0, 0, 0, 0, 0, 0, 0, 0, 0, 0, 0, 0, 0, 0, 0, 0, 0, 0, 0, 0, 0, 0, 0, 0, 0, 0, 0, 0, 0, 0, 0, 0, 0, 0, 0, 0]","[0.0010103000095114112, 0.017139700008556247, 0.0337400999997044, 0.051039000012679026, 0.06705140000849497, 0.08373810000193771, 0.10059090000868309, 0.11692020000191405, 0.13370790000772104, 0.1504031000076793, 0.16698819999874104, 0.18366880000394303, 0.20025650000025053, 0.21718300000065938, 0.23362360001192428, 0.2503183000080753, 0.267034300006344, 0.2835409000108484, 0.3002433000074234, 0.31665710000379477, 0.3336721000086982, 0.35016290000930894, 0.36677849999978207, 0.3836186000116868, 0.4002348000067286, 0.4166871000052197, 0.43337130000873003, 0.4500057000113884, 0.4669527000078233, 0.48342950000369456, 0.5001773000112735, 0.5165497999987565, 0.5336257000017213, 0.5504354000004241, 0.5665946000081021, 0.583204200011096, 0.6012393999990309, 0.6159477000037441, 0.6328530000027968, 0.6494139999995241, 0.6659418000053847, 0.6827183000132209, 0.6991859000117984, 0.7160061000031419, 0.7326651000039419, 0.7492567000008421, 0.7660270000051241, 0.7824475000088569, 0.7992595000105212, 0.8157577000092715, 0.8328562000097008, 0.8506848000106402, 0.8663086000015028, 0.8831000000063796, 0.899609900006908, 0.9165493000036804, 0.9331521999993129, 0.949699500008137, 0.9661284000030719, 0.9830817000038223, 0.9995548000006238, 1.01617350000015, 1.0334039000008488, 1.0502960000012536, 1.0663382000057027, 1.083063400001265, 1.1004607000068063, 1.116120700011379]",0.5740706900105579,None,106.49446020000323,None,106.49446020000323,None,106.49446020000323,None,106.49446020000323,106.99773719999939,106.49446020000323,None,,,,,,,,,,,,,,,,,,,,,,,,,,,,,,,0,001,2020_Oct_14_1346,vm_20xx,2020.2.4,60.10980859650604,
,,,,,,,,,,,0,0,0,0,,,,,,,,,,,,,,,,,,,,,,,,,,,,,,,,,,,,,,,,,,,,,,,,,,,,,,,,,,,,,,,,,,,,,,,,,107.49721869999485,None,0.5093966900021769,None,,,,,,,,,,,,,,,,,,,,,,,,,,,0,001,2020_Oct_14_1346,vm_20xx,2020.2.4,60.10980859650604,
0.3,-0.3,0,,,,,,,,,,,,,,,,,0,0,0,11,,,,,,,,,,,,,,,,,,,,,,,,,,,,,,,,,,,,,,,,,,,,,,,,,,,,,,,,,,,,,,,,,,,,,108.479264900001,None,108.479264900001,None,109.34554520000529,None,108.479264900001,None,"[0.0, 0.0, 0.0, 0.0, 0.0, 0.0, 0.0, 0.0, 0.0, 0.0, 0.0, 0.0, 0.0, 0.0, 0.0, 0.0, 0.0, 0.0, 0.0, 0.0, 0.0, 0.0, 0.0, 0.0, 0.0, 0.0, 0.0, 0.0, 0.0, 0.0, 0.0, 0.0, 0.0]","[0.0, 0.0, 0.0, 0.0, 0.0, 0.0, 0.0, 0.0, 0.0, 0.0, 0.0, 0.0, 0.0, 0.0, 0.0, 0.0, 0.0, 0.0, 0.0, 0.0, 0.0, 0.0, 0.0, 0.0, 0.0, 0.0, 0.0, 0.0, 0.0, 0.0, 0.0, 0.0, 0.0]","[0, 0, 0, 0, 0, 0, 0, 0, 0, 0, 0, 0, 0, 0, 0, 0, 0, 0, 0, 0, 0, 0, 0, 0, 0, 0, 0, 0, 0, 0, 0, 0, 1]","[0, 0, 0, 0, 0, 0, 0, 0, 0, 0, 0, 0, 0, 0, 0, 0, 0, 0, 0, 0, 0, 0, 0, 0, 0, 0, 0, 0, 0, 0, 0, 0, 0]","[0, 0, 0, 0, 0, 0, 0, 0, 0, 0, 0, 0, 0, 0, 0, 0, 0, 0, 0, 0, 0, 0, 0, 0, 0, 0, 0, 0, 0, 0, 0, 0, 0]","[0.00031879999733064324, 0.017220199995790608, 0.03340770000068005, 0.05078730000241194, 0.06797269999515265, 0.0839570999960415, 0.1000692999950843, 0.1167317999934312, 0.13330780000251252, 0.14998370000103023, 0.1667888999945717, 0.18324040000152308, 0.19999310000275727, 0.21661269999458455, 0.23336220000055619, 0.24992180000117514, 0.26659539999673143, 0.2837546999944607, 0.300024600001052, 0.31691439999849536, 0.33321219999925233, 0.3498910999915097, 0.36683959999936633, 0.3831567000015639, 0.3997732999996515, 0.4164275999937672, 0.4331991999933962, 0.45037399999273475, 0.4664095000043744, 0.48320079999393784, 0.49965830000292044, 0.5165564999915659, 0.5350215999933425]",0.8906702700041933,None,109.92710060000536,None,109.92710060000536,None,109.92710060000536,None,109.92710060000536,110.42785989999538,109.92710060000536,None,0,001,2020_Oct_14_1346,vm_20xx,2020.2.4,60.10980859650604,
