target_x,target_y,rotation,trials.thisRepN,trials.thisTrialN,trials.thisN,trials.thisIndex,baseline_trials.thisRepN,baseline_trials.thisTrialN,baseline_trials.thisN,baseline_trials.thisIndex,blocks.thisRepN,blocks.thisTrialN,blocks.thisN,blocks.thisIndex,block_trials.thisRepN,block_trials.thisTrialN,block_trials.thisN,block_trials.thisIndex,transfer_trials.thisRepN,transfer_trials.thisTrialN,transfer_trials.thisN,transfer_trials.thisIndex,Welcome.started,Welcome.stopped,mouse.started,mouse.stopped,text_3.started,text_3.stopped,mouse_6.started,mouse_6.stopped,baseline_enclosing_1.started,baseline_enclosing_1.stopped,baseline_enclosing.started,baseline_enclosing.stopped,baseline_target.started,baseline_target.stopped,baseline_fixation.started,baseline_fixation.stopped,baseline_mouse.x,baseline_mouse.y,baseline_mouse.leftButton,baseline_mouse.midButton,baseline_mouse.rightButton,baseline_mouse.time,baseline_mouse.started,baseline_mouse.stopped,baseline_enclosing_feedback_1.started,baseline_enclosing_feedback_1.stopped,baseline_enclosing_feedback.started,baseline_enclosing_feedback.stopped,baseline_target_feedback.started,baseline_target_feedback.stopped,baseline_fixation_feedback.started,baseline_fixation_feedback.stopped,baseline_score_text.started,baseline_score_text.stopped,text_2.started,text_2.stopped,mouse_3.started,mouse_3.stopped,rotated_enclosing_1.started,rotated_enclosing_1.stopped,rotated_enclosing.started,rotated_enclosing.stopped,rotated_target.started,rotated_target.stopped,rotated_fixation.started,rotated_fixation.stopped,rotated_mouse.x,rotated_mouse.y,rotated_mouse.leftButton,rotated_mouse.midButton,rotated_mouse.rightButton,rotated_mouse.time,rotated_mouse.started,rotated_mouse.stopped,rotated_enclosing_feedback_1.started,rotated_enclosing_feedback_1.stopped,rotated_enclosing_feedback.started,rotated_enclosing_feedback.stopped,rotated_target_feedback.started,rotated_target_feedback.stopped,rotated_fixation_feedback.started,rotated_fixation_feedback.stopped,rotated_score_text.started,rotated_score_text.stopped,rotated_breaks.started,rotated_breaks.stopped,mouse_5.started,mouse_5.stopped,transfer_enclosing_1.started,transfer_enclosing_1.stopped,transfer_enclosing.started,transfer_enclosing.stopped,transfer_target.started,transfer_target.stopped,transfer_fixation.started,transfer_fixation.stopped,transfer_mouse.x,transfer_mouse.y,transfer_mouse.leftButton,transfer_mouse.midButton,transfer_mouse.rightButton,transfer_mouse.time,transfer_mouse.started,transfer_mouse.stopped,transfer_enclosing_feedback_1.started,transfer_enclosing_feedback_1.stopped,transfer_enclosing_feedback.started,transfer_enclosing_feedback.stopped,transfer_target_feedback.started,transfer_target_feedback.stopped,transfer_fixation_feedback.started,transfer_fixation_feedback.stopped,text_4.started,text_4.stopped,participant,session,date,expName,psychopyVersion,frameRate,
,,,,,,,,,,,,,,,,,,,,,,,18.427547100000083,None,0.007096499975887127,None,,,,,,,,,,,,,,,,,,,,,,,,,,,,,,,,,,,,,,,,,,,,,,,,,,,,,,,,,,,,,,,,,,,,,,,,,,,,,,,,,,,,,,,,,,,0,001,2020_Oct_14_1352,vm_20xx,2020.2.4,60.01125811041845,
,,,,,,,,,,,,,,,,,,,,,,,,,,,19.00075000000652,None,1.0088951500074472,None,,,,,,,,,,,,,,,,,,,,,,,,,,,,,,,,,,,,,,,,,,,,,,,,,,,,,,,,,,,,,,,,,,,,,,,,,,,,,,,,,,,,,,,0,001,2020_Oct_14_1352,vm_20xx,2020.2.4,60.01125811041845,
0.3,0.3,0,,,,,0,0,0,4,,,,,,,,,,,,,,,,,,,,,21.43191640000441,None,21.43191640000441,None,22.31354950000241,None,21.43191640000441,None,"[0.0, 0.0, 0.0, 0.0, 0.0, 0.0, 0.0, 0.0, 0.0, 0.0, 0.0, 0.0, 0.0, 0.0, 0.0, 0.0, 0.0, 0.0, 0.0, 0.0, 0.0, 0.0, 0.0, 0.0, 0.0, 0.0, 0.0, 0.0, 0.0, 0.0, 0.0, 0.0, 0.0, 0.0, 0.0, 0.0, 0.0, 0.0, 0.0, 0.0, 0.0, 0.0, 0.0, 0.0, 0.0, 0.0, 0.0, 0.0, 0.0, 0.0, 0.0, 0.0, 0.0, 0.0]","[0.0, 0.0, 0.0, 0.0, 0.0, 0.0, 0.0, 0.0, 0.0, 0.0, 0.0, 0.0, 0.0, 0.0, 0.0, 0.0, 0.0, 0.0, 0.0, 0.0, 0.0, 0.0, 0.0, 0.0, 0.0, 0.0, 0.0, 0.0, 0.0, 0.0, 0.0, 0.0, 0.0, 0.0, 0.0, 0.0, 0.0, 0.0, 0.0, 0.0, 0.0, 0.0, 0.0, 0.0, 0.0, 0.0, 0.0, 0.0, 0.0, 0.0, 0.0, 0.0, 0.0, 0.0]","[0, 0, 0, 0, 0, 0, 0, 0, 0, 0, 0, 0, 0, 0, 0, 0, 0, 0, 0, 0, 0, 0, 0, 0, 0, 0, 0, 0, 0, 0, 0, 0, 0, 0, 0, 0, 0, 0, 0, 0, 0, 0, 0, 0, 0, 0, 0, 0, 0, 0, 0, 0, 0, 0]","[0, 0, 0, 0, 0, 0, 0, 0, 0, 0, 0, 0, 0, 0, 0, 0, 0, 0, 0, 0, 0, 0, 0, 0, 0, 0, 0, 0, 0, 0, 0, 0, 0, 0, 0, 0, 0, 0, 0, 0, 0, 0, 0, 0, 0, 0, 0, 0, 0, 0, 0, 0, 0, 0]","[0, 0, 0, 0, 0, 0, 0, 0, 0, 0, 0, 0, 0, 0, 0, 0, 0, 0, 0, 0, 0, 0, 0, 0, 0, 0, 0, 0, 0, 0, 0, 0, 0, 0, 0, 0, 0, 0, 0, 0, 0, 0, 0, 0, 0, 0, 0, 0, 0, 0, 0, 0, 0, 0]","[0.00016739999409765005, 0.011756299994885921, 0.026118900001165457, 0.042685599997639656, 0.05956290000176523, 0.0780627999920398, 0.09419569998863153, 0.1108276000013575, 0.12763399998948444, 0.1441900999925565, 0.16104330000234768, 0.17934809999132995, 0.19415129999106284, 0.21080889999575447, 0.22750979999545962, 0.24410660000285134, 0.26078810000035446, 0.277548799989745, 0.29396249999990687, 0.3108349999965867, 0.3273423999926308, 0.343882000001031, 0.3608976999967126, 0.3775156999909086, 0.39383669999369886, 0.41060069999366533, 0.4272454000019934, 0.4438635999977123, 0.4606759000016609, 0.47729260000051, 0.4938009999896167, 0.5106017999933101, 0.5271606999885989, 0.5436702000006335, 0.5604785999894375, 0.5773257999971975, 0.5942317000008188, 0.6104647000029217, 0.6271035999961896, 0.6436465000006137, 0.6602884000021731, 0.6770476999954553, 0.6936982999905013, 0.7101993999967817, 0.7270786000008229, 0.7435278999910224, 0.7601882000017213, 0.7780130999890389, 0.7934627999929944, 0.8103084999893326, 0.8268821999954525, 0.8434747999999672, 0.8600740999972913, 0.8770244999905117]",0.010233050008537248,0.9033631500060437,23.16724090000207,None,23.16724090000207,None,23.16724090000207,None,23.16724090000207,23.67883129999973,23.16724090000207,None,,,,,,,,,,,,,,,,,,,,,,,,,,,,,,,,,,,,,,,,,,,,,,,,,,,,,,,,,,,,,0,001,2020_Oct_14_1352,vm_20xx,2020.2.4,60.01125811041845,
-0.3,-0.3,0,,,,,0,1,1,14,,,,,,,,,,,,,,,,,,,,,24.16580220000469,None,24.16580220000469,None,25.310877600000822,None,24.16580220000469,None,"[0.0, 0.0, 0.0, 0.0, 0.0, 0.0, 0.0, 0.0, 0.0, 0.0, 0.0, 0.0, 0.0, 0.0, 0.0, 0.0, 0.0, 0.0, 0.0, 0.0, 0.0, 0.0, 0.0, 0.0, 0.0, 0.0, 0.0, 0.0, 0.0, 0.0, 0.0, 0.0, 0.0, 0.0, 0.0, 0.0, 0.0, 0.0, 0.0, 0.0, 0.0, 0.0, 0.0, 0.0, 0.0, 0.0, 0.0, 0.0, 0.0, 0.0, 0.0, 0.0, 0.0, 0.0, 0.0, 0.0, 0.0, 0.0, 0.0, 0.0, 0.0, 0.0, 0.0, 0.0, 0.0, 0.0, 0.0, 0.0, 0.0, 0.0]","[0.0, 0.0, 0.0, 0.0, 0.0, 0.0, 0.0, 0.0, 0.0, 0.0, 0.0, 0.0, 0.0, 0.0, 0.0, 0.0, 0.0, 0.0, 0.0, 0.0, 0.0, 0.0, 0.0, 0.0, 0.0, 0.0, 0.0, 0.0, 0.0, 0.0, 0.0, 0.0, 0.0, 0.0, 0.0, 0.0, 0.0, 0.0, 0.0, 0.0, 0.0, 0.0, 0.0, 0.0, 0.0, 0.0, 0.0, 0.0, 0.0, 0.0, 0.0, 0.0, 0.0, 0.0, 0.0, 0.0, 0.0, 0.0, 0.0, 0.0, 0.0, 0.0, 0.0, 0.0, 0.0, 0.0, 0.0, 0.0, 0.0, 0.0]","[0, 0, 0, 0, 0, 0, 0, 0, 0, 0, 0, 0, 0, 0, 0, 0, 0, 0, 0, 0, 0, 0, 0, 0, 0, 0, 0, 0, 0, 0, 0, 0, 0, 0, 0, 0, 0, 0, 0, 0, 0, 0, 0, 0, 0, 0, 0, 0, 0, 0, 0, 0, 0, 0, 0, 0, 0, 0, 0, 0, 0, 0, 0, 0, 0, 0, 0, 0, 0, 0]","[0, 0, 0, 0, 0, 0, 0, 0, 0, 0, 0, 0, 0, 0, 0, 0, 0, 0, 0, 0, 0, 0, 0, 0, 0, 0, 0, 0, 0, 0, 0, 0, 0, 0, 0, 0, 0, 0, 0, 0, 0, 0, 0, 0, 0, 0, 0, 0, 0, 0, 0, 0, 0, 0, 0, 0, 0, 0, 0, 0, 0, 0, 0, 0, 0, 0, 0, 0, 0, 0]","[0, 0, 0, 0, 0, 0, 0, 0, 0, 0, 0, 0, 0, 0, 0, 0, 0, 0, 0, 0, 0, 0, 0, 0, 0, 0, 0, 0, 0, 0, 0, 0, 0, 0, 0, 0, 0, 0, 0, 0, 0, 0, 0, 0, 0, 0, 0, 0, 0, 0, 0, 0, 0, 0, 0, 0, 0, 0, 0, 0, 0, 0, 0, 0, 0, 0, 0, 0, 0, 0]","[0.00032580000697635114, 0.012654999998630956, 0.02747780000208877, 0.04224619999877177, 0.05894740000076126, 0.07574400000157766, 0.09233880000829231, 0.10906119999708608, 0.12571019999450073, 0.14236929999606218, 0.15905729999940377, 0.17556170000170823, 0.1920933000074001, 0.20889059999899473, 0.22539859999960754, 0.24203940000734292, 0.2589007000060519, 0.2754960000020219, 0.29205580000416376, 0.30864309999742545, 0.3252877000049921, 0.3425693000026513, 0.3587318000063533, 0.3765741999959573, 0.39198749999923166, 0.4091575000056764, 0.425383800000418, 0.4419034000020474, 0.4586210999987088, 0.4753006999962963, 0.49177140000392683, 0.5086775999952806, 0.5252047999965725, 0.5418480999942403, 0.5589920000056736, 0.5752097000076901, 0.5925801999983378, 0.6084726999979466, 0.6251830999972299, 0.6417301000037696, 0.6584855999972206, 0.6752024000015808, 0.6917036999948323, 0.7083725999982562, 0.7249987999966834, 0.7417013999947812, 0.7583593000017572, 0.7749447999958647, 0.7915501999959815, 0.8083946999977343, 0.824946299995645, 0.8419010000070557, 0.8581696000037482, 0.8759977000008803, 0.8914574000082212, 0.9081664999976056, 0.9247548999992432, 0.9414556999981869, 0.9583717000059551, 0.9748127000057139, 0.9914377999957651, 1.008085099994787, 1.0246678999974392, 1.041320899996208, 1.0580589000019245, 1.0747752000024775, 1.0917909999989206, 1.1079605999984778, 1.1248244000016712, 1.141933799997787]",0.008100250008283183,1.1656233500107192,26.234976200008532,None,26.234976200008532,None,26.234976200008532,None,26.234976200008532,26.742790200005402,26.234976200008532,None,,,,,,,,,,,,,,,,,,,,,,,,,,,,,,,,,,,,,,,,,,,,,,,,,,,,,,,,,,,,,0,001,2020_Oct_14_1352,vm_20xx,2020.2.4,60.01125811041845,
-0.3,0.3,0,,,,,0,2,2,1,,,,,,,,,,,,,,,,,,,,,27.24490920000244,None,27.24490920000244,None,28.274685399999726,None,27.24490920000244,None,"[0.0, 0.0, 0.0, 0.0, 0.0, 0.0, 0.0, 0.0, 0.0, 0.0, 0.0, 0.0, 0.0, 0.0, 0.0, 0.0, 0.0, 0.0, 0.0, 0.0, 0.0, 0.0, 0.0, 0.0, 0.0, 0.0, 0.0, 0.0, 0.0, 0.0, 0.0, 0.0, 0.0, 0.0, 0.0, 0.0, 0.0, 0.0, 0.0, 0.0, 0.0, 0.0, 0.0, 0.0, 0.0, 0.0, 0.0, 0.0, 0.0, 0.0, 0.0, 0.0, 0.0, 0.0, 0.0, 0.0, 0.0, 0.0, 0.0, 0.0, 0.0, 0.0, 0.0, 0.0]","[0.0, 0.0, 0.0, 0.0, 0.0, 0.0, 0.0, 0.0, 0.0, 0.0, 0.0, 0.0, 0.0, 0.0, 0.0, 0.0, 0.0, 0.0, 0.0, 0.0, 0.0, 0.0, 0.0, 0.0, 0.0, 0.0, 0.0, 0.0, 0.0, 0.0, 0.0, 0.0, 0.0, 0.0, 0.0, 0.0, 0.0, 0.0, 0.0, 0.0, 0.0, 0.0, 0.0, 0.0, 0.0, 0.0, 0.0, 0.0, 0.0, 0.0, 0.0, 0.0, 0.0, 0.0, 0.0, 0.0, 0.0, 0.0, 0.0, 0.0, 0.0, 0.0, 0.0, 0.0]","[0, 0, 0, 0, 0, 0, 0, 0, 0, 0, 0, 0, 0, 0, 0, 0, 0, 0, 0, 0, 0, 0, 0, 0, 0, 0, 0, 0, 0, 0, 0, 0, 0, 0, 0, 0, 0, 0, 0, 0, 0, 0, 0, 0, 0, 0, 0, 0, 0, 0, 0, 0, 0, 0, 0, 0, 0, 0, 0, 0, 0, 0, 0, 0]","[0, 0, 0, 0, 0, 0, 0, 0, 0, 0, 0, 0, 0, 0, 0, 0, 0, 0, 0, 0, 0, 0, 0, 0, 0, 0, 0, 0, 0, 0, 0, 0, 0, 0, 0, 0, 0, 0, 0, 0, 0, 0, 0, 0, 0, 0, 0, 0, 0, 0, 0, 0, 0, 0, 0, 0, 0, 0, 0, 0, 0, 0, 0, 0]","[0, 0, 0, 0, 0, 0, 0, 0, 0, 0, 0, 0, 0, 0, 0, 0, 0, 0, 0, 0, 0, 0, 0, 0, 0, 0, 0, 0, 0, 0, 0, 0, 0, 0, 0, 0, 0, 0, 0, 0, 0, 0, 0, 0, 0, 0, 0, 0, 0, 0, 0, 0, 0, 0, 0, 0, 0, 0, 0, 0, 0, 0, 0, 0]","[0.00031430000672116876, 0.015129000006709248, 0.029692399999476038, 0.04521500000555534, 0.061953900003572926, 0.07847649999894202, 0.09515960000862833, 0.11186150000139605, 0.12840410000353586, 0.14521360000071581, 0.16193130001192912, 0.1784202999988338, 0.1950465000118129, 0.2116872000042349, 0.22855120000895113, 0.24514910001016688, 0.26174870000977535, 0.2781942000001436, 0.29502510000020266, 0.3116608999989694, 0.32837210000434425, 0.3449436000082642, 0.36188130000664387, 0.3782311000104528, 0.39494730001024436, 0.4115522000065539, 0.42832210000779014, 0.44516640000802, 0.46158180000202265, 0.4782253000012133, 0.4948921000031987, 0.5114265000011073, 0.5280220999993617, 0.544794000001275, 0.5613712000049418, 0.5780840000079479, 0.5946804000122938, 0.6113918000046397, 0.6278868000081275, 0.6453172000037739, 0.6613386000099126, 0.6778397000016412, 0.6951696000032825, 0.7112029999989318, 0.7278329000109807, 0.7446573000052013, 0.7613674000022002, 0.7778650000109337, 0.7946200000005774, 0.8112174000125378, 0.8277964000008069, 0.8447941000049468, 0.8611284000071464, 0.8776706000062404, 0.8944341000023996, 0.9111782000109088, 0.9275884000089718, 0.9445095999981277, 0.9610207000077935, 0.9776872000074945, 0.9947099999990314, 1.011007500012056, 1.0277958000078797, 1.0443893000046955]",0.010946149996016175,1.0723232500022277,29.050961900007678,None,29.050961900007678,None,29.050961900007678,None,29.050961900007678,29.55680220000795,29.050961900007678,None,,,,,,,,,,,,,,,,,,,,,,,,,,,,,,,,,,,,,,,,,,,,,,,,,,,,,,,,,,,,,0,001,2020_Oct_14_1352,vm_20xx,2020.2.4,60.01125811041845,
-0.3,-0.3,0,,,,,0,3,3,2,,,,,,,,,,,,,,,,,,,,,30.05928450000647,None,30.05928450000647,None,31.288476000001538,None,30.05928450000647,None,"[0.0, 0.0, 0.0, 0.0, 0.0, 0.0, 0.0, 0.0, 0.0, 0.0, 0.0, 0.0, 0.0, 0.0, 0.0, 0.0, 0.0, 0.0, 0.0, 0.0, 0.0, 0.0, 0.0, 0.0, 0.0, 0.0, 0.0, 0.0, 0.0, 0.0, 0.0, 0.0, 0.0, 0.0, 0.0, 0.0, 0.0, 0.0, 0.0, 0.0, 0.0, 0.0, 0.0, 0.0, 0.0, 0.0, 0.0, 0.0, 0.0, 0.0, 0.0, 0.0, 0.0, 0.0, 0.0, 0.0, 0.0, 0.0, 0.0, 0.0, 0.0, 0.0, 0.0, 0.0, 0.0, 0.0, 0.0, 0.0, 0.0, 0.0, 0.0, 0.0, 0.0, 0.0, 0.0]","[0.0, 0.0, 0.0, 0.0, 0.0, 0.0, 0.0, 0.0, 0.0, 0.0, 0.0, 0.0, 0.0, 0.0, 0.0, 0.0, 0.0, 0.0, 0.0, 0.0, 0.0, 0.0, 0.0, 0.0, 0.0, 0.0, 0.0, 0.0, 0.0, 0.0, 0.0, 0.0, 0.0, 0.0, 0.0, 0.0, 0.0, 0.0, 0.0, 0.0, 0.0, 0.0, 0.0, 0.0, 0.0, 0.0, 0.0, 0.0, 0.0, 0.0, 0.0, 0.0, 0.0, 0.0, 0.0, 0.0, 0.0, 0.0, 0.0, 0.0, 0.0, 0.0, 0.0, 0.0, 0.0, 0.0, 0.0, 0.0, 0.0, 0.0, 0.0, 0.0, 0.0, 0.0, 0.0]","[0, 0, 0, 0, 0, 0, 0, 0, 0, 0, 0, 0, 0, 0, 0, 0, 0, 0, 0, 0, 0, 0, 0, 0, 0, 0, 0, 0, 0, 0, 0, 0, 0, 0, 0, 0, 0, 0, 0, 0, 0, 0, 0, 0, 0, 0, 0, 0, 0, 0, 0, 0, 0, 0, 0, 0, 0, 0, 0, 0, 0, 0, 0, 0, 0, 0, 0, 0, 0, 0, 0, 0, 0, 0, 0]","[0, 0, 0, 0, 0, 0, 0, 0, 0, 0, 0, 0, 0, 0, 0, 0, 0, 0, 0, 0, 0, 0, 0, 0, 0, 0, 0, 0, 0, 0, 0, 0, 0, 0, 0, 0, 0, 0, 0, 0, 0, 0, 0, 0, 0, 0, 0, 0, 0, 0, 0, 0, 0, 0, 0, 0, 0, 0, 0, 0, 0, 0, 0, 0, 0, 0, 0, 0, 0, 0, 0, 0, 0, 0, 0]","[0, 0, 0, 0, 0, 0, 0, 0, 0, 0, 0, 0, 0, 0, 0, 0, 0, 0, 0, 0, 0, 0, 0, 0, 0, 0, 0, 0, 0, 0, 0, 0, 0, 0, 0, 0, 0, 0, 0, 0, 0, 0, 0, 0, 0, 0, 0, 0, 0, 0, 0, 0, 0, 0, 0, 0, 0, 0, 0, 0, 0, 0, 0, 0, 0, 0, 0, 0, 0, 0, 0, 0, 0, 0, 0]","[0.0003220999933546409, 0.014997899997979403, 0.02897419998771511, 0.0449981999990996, 0.06218379999336321, 0.07823590000043623, 0.0949415999930352, 0.11167299999215174, 0.12830189999658614, 0.14488939999137074, 0.16160849999869242, 0.17884309998771641, 0.19550859999435488, 0.2118752999958815, 0.2284108999883756, 0.2447941999998875, 0.26200009998865426, 0.2784333999879891, 0.29476879999856465, 0.31156129999726545, 0.32798709999769926, 0.3446300999930827, 0.3614532999927178, 0.3779251999949338, 0.39496069999586325, 0.4113103999989107, 0.42798369999218266, 0.44461939999018796, 0.4613987999910023, 0.47802719999162946, 0.4947016999940388, 0.5117576999909943, 0.5278132999956142, 0.5444461000006413, 0.5615390999882948, 0.5783631999947829, 0.5946496999968076, 0.6116478999902029, 0.6277579999878071, 0.6445018999947933, 0.6611512999952538, 0.6779237000009743, 0.6944660000008298, 0.7110454999929061, 0.7275985999876866, 0.7443419999908656, 0.7611690999910934, 0.7776689999882365, 0.7943125999881886, 0.8110499999893364, 0.8291108999983408, 0.8443540000007488, 0.860860100001446, 0.8775486999948043, 0.8945720999909099, 0.9109200999955647, 0.9275761999888346, 0.9442274999892106, 0.9609137999941595, 0.9775041999964742, 0.994144199998118, 1.0106355999887455, 1.0274252999952296, 1.0441554999997607, 1.0607405999908224, 1.0778865999891423, 1.0940660999913234, 1.1106907999928808, 1.1273509999882663, 1.1439567999914289, 1.1605595000000903, 1.1773319999920204, 1.193879400001606, 1.2106627999892225, 1.2273089999944204]",0.010925750000751577,1.2542625500063878,32.0767152000044,None,32.0767152000044,None,32.0767152000044,None,32.0767152000044,32.587210600002436,32.0767152000044,None,,,,,,,,,,,,,,,,,,,,,,,,,,,,,,,,,,,,,,,,,,,,,,,,,,,,,,,,,,,,,0,001,2020_Oct_14_1352,vm_20xx,2020.2.4,60.01125811041845,
0.3,-0.3,0,,,,,0,4,4,15,,,,,,,,,,,,,,,,,,,,,33.07419379999919,None,33.07419379999919,None,34.136191400000826,None,33.07419379999919,None,"[0.0, 0.0, 0.0, 0.0, 0.0, 0.0, 0.0, 0.0, 0.0, 0.0, 0.0, 0.0, 0.0, 0.0, 0.0, 0.0, 0.0, 0.0, 0.0, 0.0, 0.0, 0.0, 0.0, 0.0, 0.0, 0.0, 0.0, 0.0, 0.0, 0.0, 0.0, 0.0, 0.0, 0.0, 0.0, 0.0, 0.0, 0.0, 0.0, 0.0, 0.0, 0.0, 0.0, 0.0, 0.0, 0.0, 0.0, 0.0, 0.0, 0.0, 0.0, 0.0, 0.0, 0.0, 0.0, 0.0, 0.0, 0.0, 0.0, 0.0, 0.0, 0.0, 0.0, 0.0, 0.0, 0.0]","[0.0, 0.0, 0.0, 0.0, 0.0, 0.0, 0.0, 0.0, 0.0, 0.0, 0.0, 0.0, 0.0, 0.0, 0.0, 0.0, 0.0, 0.0, 0.0, 0.0, 0.0, 0.0, 0.0, 0.0, 0.0, 0.0, 0.0, 0.0, 0.0, 0.0, 0.0, 0.0, 0.0, 0.0, 0.0, 0.0, 0.0, 0.0, 0.0, 0.0, 0.0, 0.0, 0.0, 0.0, 0.0, 0.0, 0.0, 0.0, 0.0, 0.0, 0.0, 0.0, 0.0, 0.0, 0.0, 0.0, 0.0, 0.0, 0.0, 0.0, 0.0, 0.0, 0.0, 0.0, 0.0, 0.0]","[0, 0, 0, 0, 0, 0, 0, 0, 0, 0, 0, 0, 0, 0, 0, 0, 0, 0, 0, 0, 0, 0, 0, 0, 0, 0, 0, 0, 0, 0, 0, 0, 0, 0, 0, 0, 0, 0, 0, 0, 0, 0, 0, 0, 0, 0, 0, 0, 0, 0, 0, 0, 0, 0, 0, 0, 0, 0, 0, 0, 0, 0, 0, 0, 0, 0]","[0, 0, 0, 0, 0, 0, 0, 0, 0, 0, 0, 0, 0, 0, 0, 0, 0, 0, 0, 0, 0, 0, 0, 0, 0, 0, 0, 0, 0, 0, 0, 0, 0, 0, 0, 0, 0, 0, 0, 0, 0, 0, 0, 0, 0, 0, 0, 0, 0, 0, 0, 0, 0, 0, 0, 0, 0, 0, 0, 0, 0, 0, 0, 0, 0, 0]","[0, 0, 0, 0, 0, 0, 0, 0, 0, 0, 0, 0, 0, 0, 0, 0, 0, 0, 0, 0, 0, 0, 0, 0, 0, 0, 0, 0, 0, 0, 0, 0, 0, 0, 0, 0, 0, 0, 0, 0, 0, 0, 0, 0, 0, 0, 0, 0, 0, 0, 0, 0, 0, 0, 0, 0, 0, 0, 0, 0, 0, 0, 0, 0, 0, 0]","[0.000331900009769015, 0.015625900006853044, 0.02932840000721626, 0.044601500005228445, 0.06210730000748299, 0.07793620000302326, 0.09471420000772923, 0.11136360000818968, 0.12854720000177622, 0.1446219000063138, 0.1613095000066096, 0.1780091000109678, 0.19463360001100227, 0.21146279999811668, 0.22782690000894945, 0.24442060000728816, 0.2611637000081828, 0.27773159999924246, 0.2944875000102911, 0.311128400004236, 0.328067700000247, 0.34432879999803845, 0.36111940001137555, 0.37767800000438, 0.39431030000559986, 0.4109630000020843, 0.4277714000054402, 0.4445552000106545, 0.46107810000830796, 0.47767980000935495, 0.4942953999998281, 0.5109873000037624, 0.5276564000087092, 0.5442478000040865, 0.5612320000072941, 0.577525800006697, 0.5942823000077624, 0.6107807000080356, 0.627480100010871, 0.6442124000022886, 0.6607185000029858, 0.6773328999988735, 0.6939914000104181, 0.7109266000043135, 0.7274193000048399, 0.7441148000070825, 0.7607640000060201, 0.7773547000106191, 0.7939465000090422, 0.811402100007399, 0.8273015000013402, 0.8439751000114484, 0.8607077000051504, 0.8771885000023758, 0.8938821000047028, 0.9105324000120163, 0.9271620000072289, 0.9437028000102146, 0.9604900999984238, 0.9774985000112792, 0.9939168999990216, 1.0104889000067487, 1.0269675000017742, 1.0437087000027532, 1.0609612000116613, 1.077549599998747]",0.010584350005956367,1.103698250008165,34.95919380000851,None,34.95919380000851,None,34.95919380000851,None,34.95919380000851,35.46832369999902,34.95919380000851,None,,,,,,,,,,,,,,,,,,,,,,,,,,,,,,,,,,,,,,,,,,,,,,,,,,,,,,,,,,,,,0,001,2020_Oct_14_1352,vm_20xx,2020.2.4,60.01125811041845,
-0.3,0.3,0,,,,,0,5,5,9,,,,,,,,,,,,,,,,,,,,,35.97034060000442,None,35.97034060000442,None,36.79977150000923,None,35.97034060000442,None,"[0.0, 0.0, 0.0, 0.0, 0.0, 0.0, 0.0, 0.0, 0.0, 0.0, 0.0, 0.0, 0.0, 0.0, 0.0, 0.0, 0.0, 0.0, 0.0, 0.0, 0.0, 0.0, 0.0, 0.0, 0.0, 0.0, 0.0, 0.0, 0.0, 0.0, 0.0, 0.0, 0.0, 0.0, 0.0, 0.0, 0.0, 0.0, 0.0, 0.0, 0.0, 0.0, 0.0, 0.0, 0.0, 0.0, 0.0, 0.0, 0.0, 0.0, 0.0, 0.0]","[0.0, 0.0, 0.0, 0.0, 0.0, 0.0, 0.0, 0.0, 0.0, 0.0, 0.0, 0.0, 0.0, 0.0, 0.0, 0.0, 0.0, 0.0, 0.0, 0.0, 0.0, 0.0, 0.0, 0.0, 0.0, 0.0, 0.0, 0.0, 0.0, 0.0, 0.0, 0.0, 0.0, 0.0, 0.0, 0.0, 0.0, 0.0, 0.0, 0.0, 0.0, 0.0, 0.0, 0.0, 0.0, 0.0, 0.0, 0.0, 0.0, 0.0, 0.0, 0.0]","[0, 0, 0, 0, 0, 0, 0, 0, 0, 0, 0, 0, 0, 0, 0, 0, 0, 0, 0, 0, 0, 0, 0, 0, 0, 0, 0, 0, 0, 0, 0, 0, 0, 0, 0, 0, 0, 0, 0, 0, 0, 0, 0, 0, 0, 0, 0, 0, 0, 0, 0, 0]","[0, 0, 0, 0, 0, 0, 0, 0, 0, 0, 0, 0, 0, 0, 0, 0, 0, 0, 0, 0, 0, 0, 0, 0, 0, 0, 0, 0, 0, 0, 0, 0, 0, 0, 0, 0, 0, 0, 0, 0, 0, 0, 0, 0, 0, 0, 0, 0, 0, 0, 0, 0]","[0, 0, 0, 0, 0, 0, 0, 0, 0, 0, 0, 0, 0, 0, 0, 0, 0, 0, 0, 0, 0, 0, 0, 0, 0, 0, 0, 0, 0, 0, 0, 0, 0, 0, 0, 0, 0, 0, 0, 0, 0, 0, 0, 0, 0, 0, 0, 0, 0, 0, 0, 0]","[0.00031439999293070287, 0.014588999998522922, 0.02888889999303501, 0.0450256000040099, 0.06144079999648966, 0.07810990000143647, 0.09461770000052638, 0.11144670000066981, 0.12809719999495428, 0.14451879999251105, 0.16149210000003222, 0.17809899999701884, 0.19458039999881294, 0.21123669999360573, 0.22801989999425132, 0.24484640000446234, 0.26121620000049006, 0.2781284999946365, 0.2945341000013286, 0.31132249999791384, 0.32783549999294337, 0.3444407000060892, 0.3611603000026662, 0.3777401999977883, 0.39473610000277404, 0.411217899993062, 0.4277693000040017, 0.4446389999939129, 0.46129560000554193, 0.4778918999945745, 0.4943351999972947, 0.5111488999973517, 0.527671999996528, 0.5441952999972273, 0.5609123000031104, 0.5774914999929024, 0.5942252999957418, 0.6108810000005178, 0.6283057999971788, 0.6446158000035211, 0.660854300003848, 0.6775966999994125, 0.6940915000013774, 0.7113425999996252, 0.7275040999957127, 0.7439768000040203, 0.7609172999946168, 0.7774258999997983, 0.7940355000027921, 0.8108130000036908, 0.8274807999987388, 0.8439150000049267]",0.010722050006734207,0.870703250009683,37.774058299997705,None,37.774058299997705,None,37.774058299997705,None,37.774058299997705,38.281858200003626,37.774058299997705,None,,,,,,,,,,,,,,,,,,,,,,,,,,,,,,,,,,,,,,,,,,,,,,,,,,,,,,,,,,,,,0,001,2020_Oct_14_1352,vm_20xx,2020.2.4,60.01125811041845,
-0.3,-0.3,0,,,,,0,6,6,6,,,,,,,,,,,,,,,,,,,,,38.783969600001,None,38.783969600001,None,40.22995790001005,None,38.783969600001,None,"[0.0, 0.0, 0.0, 0.0, 0.0, 0.0, 0.0, 0.0, 0.0, 0.0, 0.0, 0.0, 0.0, 0.0, 0.0, 0.0, 0.0, 0.0, 0.0, 0.0, 0.0, 0.0, 0.0, 0.0, 0.0, 0.0, 0.0, 0.0, 0.0, 0.0, 0.0, 0.0, 0.0, 0.0, 0.0, 0.0, 0.0, 0.0, 0.0, 0.0, 0.0, 0.0, 0.0, 0.0, 0.0, 0.0, 0.0, 0.0, 0.0, 0.0, 0.0, 0.0, 0.0, 0.0, 0.0, 0.0, 0.0, 0.0, 0.0, 0.0, 0.0, 0.0, 0.0, 0.0, 0.0, 0.0, 0.0, 0.0, 0.0, 0.0, 0.0, 0.0, 0.0, 0.0, 0.0, 0.0, 0.0, 0.0, 0.0, 0.0, 0.0, 0.0, 0.0, 0.0, 0.0, 0.0, 0.0, 0.0]","[0.0, 0.0, 0.0, 0.0, 0.0, 0.0, 0.0, 0.0, 0.0, 0.0, 0.0, 0.0, 0.0, 0.0, 0.0, 0.0, 0.0, 0.0, 0.0, 0.0, 0.0, 0.0, 0.0, 0.0, 0.0, 0.0, 0.0, 0.0, 0.0, 0.0, 0.0, 0.0, 0.0, 0.0, 0.0, 0.0, 0.0, 0.0, 0.0, 0.0, 0.0, 0.0, 0.0, 0.0, 0.0, 0.0, 0.0, 0.0, 0.0, 0.0, 0.0, 0.0, 0.0, 0.0, 0.0, 0.0, 0.0, 0.0, 0.0, 0.0, 0.0, 0.0, 0.0, 0.0, 0.0, 0.0, 0.0, 0.0, 0.0, 0.0, 0.0, 0.0, 0.0, 0.0, 0.0, 0.0, 0.0, 0.0, 0.0, 0.0, 0.0, 0.0, 0.0, 0.0, 0.0, 0.0, 0.0, 0.0]","[0, 0, 0, 0, 0, 0, 0, 0, 0, 0, 0, 0, 0, 0, 0, 0, 0, 0, 0, 0, 0, 0, 0, 0, 0, 0, 0, 0, 0, 0, 0, 0, 0, 0, 0, 0, 0, 0, 0, 0, 0, 0, 0, 0, 0, 0, 0, 0, 0, 0, 0, 0, 0, 0, 0, 0, 0, 0, 0, 0, 0, 0, 0, 0, 0, 0, 0, 0, 0, 0, 0, 0, 0, 0, 0, 0, 0, 0, 0, 0, 0, 0, 0, 0, 0, 0, 0, 0]","[0, 0, 0, 0, 0, 0, 0, 0, 0, 0, 0, 0, 0, 0, 0, 0, 0, 0, 0, 0, 0, 0, 0, 0, 0, 0, 0, 0, 0, 0, 0, 0, 0, 0, 0, 0, 0, 0, 0, 0, 0, 0, 0, 0, 0, 0, 0, 0, 0, 0, 0, 0, 0, 0, 0, 0, 0, 0, 0, 0, 0, 0, 0, 0, 0, 0, 0, 0, 0, 0, 0, 0, 0, 0, 0, 0, 0, 0, 0, 0, 0, 0, 0, 0, 0, 0, 0, 0]","[0, 0, 0, 0, 0, 0, 0, 0, 0, 0, 0, 0, 0, 0, 0, 0, 0, 0, 0, 0, 0, 0, 0, 0, 0, 0, 0, 0, 0, 0, 0, 0, 0, 0, 0, 0, 0, 0, 0, 0, 0, 0, 0, 0, 0, 0, 0, 0, 0, 0, 0, 0, 0, 0, 0, 0, 0, 0, 0, 0, 0, 0, 0, 0, 0, 0, 0, 0, 0, 0, 0, 0, 0, 0, 0, 0, 0, 0, 0, 0, 0, 0, 0, 0, 0, 0, 0, 0]","[0.0003218999918317422, 0.014331500002299435, 0.02848449999873992, 0.04486019999603741, 0.06163889999152161, 0.07850649999454618, 0.09502330000395887, 0.11152029999357183, 0.128092300001299, 0.14480500000354368, 0.16244869999354705, 0.17814760000328533, 0.1951654000004055, 0.21136859999387525, 0.22803499999281485, 0.2448621999938041, 0.2614689000038197, 0.2779963999928441, 0.29458729999896605, 0.31123930000467226, 0.32803999999305233, 0.3445769999962067, 0.361315400004969, 0.37791399999696296, 0.3945787999982713, 0.4115573000017321, 0.42790330000570975, 0.4444595999957528, 0.4610989999928279, 0.47797379999246914, 0.49443569999129977, 0.5110478999995394, 0.5277396000019507, 0.5444125999929383, 0.56113390000246, 0.5777980999991996, 0.5944088999967789, 0.61111090000486, 0.6278086999955121, 0.6442829000006896, 0.6610247999924468, 0.677941899994039, 0.6942411000054562, 0.7108832999947481, 0.7282241999928374, 0.7443028999987291, 0.7608459000039147, 0.7776560000056634, 0.7941481000016211, 0.8107943999930285, 0.8275205999962054, 0.8440459999983432, 0.8608844999980647, 0.8774296000046888, 0.8939663999917684, 0.9111514999967767, 0.9276062999997521, 0.943982099997811, 0.9611638999922434, 0.9774067999969702, 0.9939866999920923, 1.0107114999991609, 1.027299800000037, 1.0438404000014998, 1.0606824999995297, 1.0773151000030339, 1.0938186999992467, 1.1105953999940539, 1.1273691999958828, 1.1437644999969052, 1.1605368000018643, 1.1772173999925144, 1.1937930999993114, 1.2104249999974854, 1.227089199994225, 1.2437801999913063, 1.260311999998521, 1.2771911000018008, 1.293613899993943, 1.3105561999982456, 1.3269791999919107, 1.34365149999212, 1.3604440999915823, 1.3769518000044627, 1.3934927999944193, 1.410323399992194, 1.4269971000030637, 1.4436167999956524]",0.010783949983306229,1.4703324499860173,41.16859600000316,None,41.16859600000316,None,41.16859600000316,None,41.16859600000316,41.678679700009525,41.16859600000316,None,,,,,,,,,,,,,,,,,,,,,,,,,,,,,,,,,,,,,,,,,,,,,,,,,,,,,,,,,,,,,0,001,2020_Oct_14_1352,vm_20xx,2020.2.4,60.01125811041845,
-0.3,0.3,0,,,,,0,7,7,13,,,,,,,,,,,,,,,,,,,,,42.16448120000132,None,42.16448120000132,None,43.543631799999275,None,42.16448120000132,None,"[0.0, 0.0, 0.0, 0.0, 0.0, 0.0, 0.0, 0.0, 0.0, 0.0, 0.0, 0.0, 0.0, 0.0, 0.0, 0.0, 0.0, 0.0, 0.0, 0.0, 0.0, 0.0, 0.0, 0.0, 0.0, 0.0, 0.0, 0.0, 0.0, 0.0, 0.0, 0.0, 0.0, 0.0, 0.0, 0.0, 0.0, 0.0, 0.0, 0.0, 0.0, 0.0, 0.0, 0.0, 0.0, 0.0, 0.0, 0.0, 0.0, 0.0, 0.0, 0.0, 0.0, 0.0, 0.0, 0.0, 0.0, 0.0, 0.0, 0.0, 0.0, 0.0, 0.0, 0.0, 0.0, 0.0, 0.0, 0.0, 0.0, 0.0, 0.0, 0.0, 0.0, 0.0, 0.0, 0.0, 0.0, 0.0, 0.0, 0.0, 0.0, 0.0, 0.0, 0.0, 0.0]","[0.0, 0.0, 0.0, 0.0, 0.0, 0.0, 0.0, 0.0, 0.0, 0.0, 0.0, 0.0, 0.0, 0.0, 0.0, 0.0, 0.0, 0.0, 0.0, 0.0, 0.0, 0.0, 0.0, 0.0, 0.0, 0.0, 0.0, 0.0, 0.0, 0.0, 0.0, 0.0, 0.0, 0.0, 0.0, 0.0, 0.0, 0.0, 0.0, 0.0, 0.0, 0.0, 0.0, 0.0, 0.0, 0.0, 0.0, 0.0, 0.0, 0.0, 0.0, 0.0, 0.0, 0.0, 0.0, 0.0, 0.0, 0.0, 0.0, 0.0, 0.0, 0.0, 0.0, 0.0, 0.0, 0.0, 0.0, 0.0, 0.0, 0.0, 0.0, 0.0, 0.0, 0.0, 0.0, 0.0, 0.0, 0.0, 0.0, 0.0, 0.0, 0.0, 0.0, 0.0, 0.0]","[0, 0, 0, 0, 0, 0, 0, 0, 0, 0, 0, 0, 0, 0, 0, 0, 0, 0, 0, 0, 0, 0, 0, 0, 0, 0, 0, 0, 0, 0, 0, 0, 0, 0, 0, 0, 0, 0, 0, 0, 0, 0, 0, 0, 0, 0, 0, 0, 0, 0, 0, 0, 0, 0, 0, 0, 0, 0, 0, 0, 0, 0, 0, 0, 0, 0, 0, 0, 0, 0, 0, 0, 0, 0, 0, 0, 0, 0, 0, 0, 0, 0, 0, 0, 0]","[0, 0, 0, 0, 0, 0, 0, 0, 0, 0, 0, 0, 0, 0, 0, 0, 0, 0, 0, 0, 0, 0, 0, 0, 0, 0, 0, 0, 0, 0, 0, 0, 0, 0, 0, 0, 0, 0, 0, 0, 0, 0, 0, 0, 0, 0, 0, 0, 0, 0, 0, 0, 0, 0, 0, 0, 0, 0, 0, 0, 0, 0, 0, 0, 0, 0, 0, 0, 0, 0, 0, 0, 0, 0, 0, 0, 0, 0, 0, 0, 0, 0, 0, 0, 0]","[0, 0, 0, 0, 0, 0, 0, 0, 0, 0, 0, 0, 0, 0, 0, 0, 0, 0, 0, 0, 0, 0, 0, 0, 0, 0, 0, 0, 0, 0, 0, 0, 0, 0, 0, 0, 0, 0, 0, 0, 0, 0, 0, 0, 0, 0, 0, 0, 0, 0, 0, 0, 0, 0, 0, 0, 0, 0, 0, 0, 0, 0, 0, 0, 0, 0, 0, 0, 0, 0, 0, 0, 0, 0, 0, 0, 0, 0, 0, 0, 0, 0, 0, 0, 0]","[0.00033409999741706997, 0.014627500000642613, 0.02894930000184104, 0.0448305000027176, 0.06152980000479147, 0.07804180000675842, 0.09572129999287426, 0.11166809999849647, 0.1280778999935137, 0.14491829999315087, 0.16139409999595955, 0.17804090000572614, 0.19469639999442734, 0.2115715999971144, 0.22791050000523683, 0.24502149999898393, 0.26126850000582635, 0.27796330000273883, 0.2946598999988055, 0.31118220000644214, 0.3278841999999713, 0.34510649999720044, 0.36125929999980144, 0.3778232000040589, 0.39444849999563303, 0.41112649999558926, 0.42776360000425484, 0.4445772000035504, 0.4611356999957934, 0.47772949999489356, 0.494457799999509, 0.5110833999933675, 0.5277223000011873, 0.5445519000058994, 0.5609599000017624, 0.5775872999947751, 0.5944133000011789, 0.6109969999961322, 0.6275974000018323, 0.64466910000192, 0.6609606999991229, 0.6775756999995792, 0.6940348000061931, 0.7109195999946678, 0.7275751999986824, 0.7441338000062387, 0.7607843000005232, 0.77739410000504, 0.7942036000022199, 0.8108612000069115, 0.8275053999968804, 0.8441957000031834, 0.8612502000032691, 0.877365499996813, 0.8945082999998704, 0.9107149000046775, 0.9273399999947287, 0.9439076999988174, 0.960684499994386, 0.9772007999999914, 0.9940627000032691, 1.0106392000016058, 1.027225099998759, 1.0438348000025144, 1.0605079999950249, 1.0772443000023486, 1.0941708000027575, 1.1105531000066549, 1.1270101999980398, 1.1438021000067238, 1.1604440999944927, 1.177018999995198, 1.1936072999960743, 1.2103325000061886, 1.2270239999925252, 1.2435878999967827, 1.2604338999954052, 1.2769108000065899, 1.2938114999997197, 1.3102699000010034, 1.3268452000047546, 1.3436423999955878, 1.3603359999979148, 1.3771368000016082, 1.3936224000062793]",0.010783349993289448,1.4203759499941953,44.35815410000214,None,44.35815410000214,None,44.35815410000214,None,44.35815410000214,44.85896209999919,44.35815410000214,None,,,,,,,,,,,,,,,,,,,,,,,,,,,,,,,,,,,,,,,,,,,,,,,,,,,,,,,,,,,,,0,001,2020_Oct_14_1352,vm_20xx,2020.2.4,60.01125811041845,
0.3,0.3,0,,,,,0,8,8,8,,,,,,,,,,,,,,,,,,,,,45.34532720000425,None,45.34532720000425,None,46.57400370000687,None,45.34532720000425,None,"[0.0, 0.0, 0.0, 0.0, 0.0, 0.0, 0.0, 0.0, 0.0, 0.0, 0.0, 0.0, 0.0, 0.0, 0.0, 0.0, 0.0, 0.0, 0.0, 0.0, 0.0, 0.0, 0.0, 0.0, 0.0, 0.0, 0.0, 0.0, 0.0, 0.0, 0.0, 0.0, 0.0, 0.0, 0.0, 0.0, 0.0, 0.0, 0.0, 0.0, 0.0, 0.0, 0.0, 0.0, 0.0, 0.0, 0.0, 0.0, 0.0, 0.0, 0.0, 0.0, 0.0, 0.0, 0.0, 0.0, 0.0, 0.0, 0.0, 0.0, 0.0, 0.0, 0.0, 0.0, 0.0, 0.0, 0.0, 0.0, 0.0, 0.0, 0.0, 0.0, 0.0, 0.0, 0.0, 0.0]","[0.0, 0.0, 0.0, 0.0, 0.0, 0.0, 0.0, 0.0, 0.0, 0.0, 0.0, 0.0, 0.0, 0.0, 0.0, 0.0, 0.0, 0.0, 0.0, 0.0, 0.0, 0.0, 0.0, 0.0, 0.0, 0.0, 0.0, 0.0, 0.0, 0.0, 0.0, 0.0, 0.0, 0.0, 0.0, 0.0, 0.0, 0.0, 0.0, 0.0, 0.0, 0.0, 0.0, 0.0, 0.0, 0.0, 0.0, 0.0, 0.0, 0.0, 0.0, 0.0, 0.0, 0.0, 0.0, 0.0, 0.0, 0.0, 0.0, 0.0, 0.0, 0.0, 0.0, 0.0, 0.0, 0.0, 0.0, 0.0, 0.0, 0.0, 0.0, 0.0, 0.0, 0.0, 0.0, 0.0]","[0, 0, 0, 0, 0, 0, 0, 0, 0, 0, 0, 0, 0, 0, 0, 0, 0, 0, 0, 0, 0, 0, 0, 0, 0, 0, 0, 0, 0, 0, 0, 0, 0, 0, 0, 0, 0, 0, 0, 0, 0, 0, 0, 0, 0, 0, 0, 0, 0, 0, 0, 0, 0, 0, 0, 0, 0, 0, 0, 0, 0, 0, 0, 0, 0, 0, 0, 0, 0, 0, 0, 0, 0, 0, 0, 0]","[0, 0, 0, 0, 0, 0, 0, 0, 0, 0, 0, 0, 0, 0, 0, 0, 0, 0, 0, 0, 0, 0, 0, 0, 0, 0, 0, 0, 0, 0, 0, 0, 0, 0, 0, 0, 0, 0, 0, 0, 0, 0, 0, 0, 0, 0, 0, 0, 0, 0, 0, 0, 0, 0, 0, 0, 0, 0, 0, 0, 0, 0, 0, 0, 0, 0, 0, 0, 0, 0, 0, 0, 0, 0, 0, 0]","[0, 0, 0, 0, 0, 0, 0, 0, 0, 0, 0, 0, 0, 0, 0, 0, 0, 0, 0, 0, 0, 0, 0, 0, 0, 0, 0, 0, 0, 0, 0, 0, 0, 0, 0, 0, 0, 0, 0, 0, 0, 0, 0, 0, 0, 0, 0, 0, 0, 0, 0, 0, 0, 0, 0, 0, 0, 0, 0, 0, 0, 0, 0, 0, 0, 0, 0, 0, 0, 0, 0, 0, 0, 0, 0, 0]","[0.0003147999959765002, 0.015267399998265319, 0.029759199998807162, 0.044793399996706285, 0.061640799991437234, 0.07814749999670312, 0.09491159999743104, 0.11154230000101961, 0.12803839999833144, 0.1448755000019446, 0.16149790000054054, 0.17806769999151584, 0.1958864999905927, 0.2115534999902593, 0.22795509999559727, 0.24469579999276903, 0.26137789999484085, 0.278050599998096, 0.2945066999964183, 0.3113273999915691, 0.32797099999152124, 0.3446408000017982, 0.36130360000242945, 0.37799059999815654, 0.3946386000025086, 0.41158030000224244, 0.42783610000333283, 0.44448069999634754, 0.4611711999896215, 0.477892900002189, 0.4945058000012068, 0.5113437999971211, 0.5277532000036445, 0.5443968000035966, 0.5612125999905402, 0.5777234999986831, 0.5944548999977997, 0.6111356000037631, 0.627707299994654, 0.6444005999946967, 0.661009000003105, 0.6776287999964552, 0.6942974999983562, 0.7113205999921774, 0.7277341000008164, 0.7448730999894906, 0.7615901999961352, 0.7775781999953324, 0.7942197999946075, 0.8109600000025239, 0.8275911999953678, 0.8441502999921795, 0.8609329000028083, 0.8772958999907132, 0.8941259999992326, 0.9107936999935191, 0.9272953999898164, 0.9440650000033202, 0.9609531000023708, 0.9783603999967454, 0.9940471000008984, 1.010918899992248, 1.0285546999948565, 1.0439960999938194, 1.0610827999917092, 1.0772094999992987, 1.093947899993509, 1.1105280999909155, 1.12736749999749, 1.1439688999962527, 1.1605848999897717, 1.1770320999930846, 1.1938414000032935, 1.2105156000034185, 1.2279272000014316, 1.2437601999990875]",0.010625149996485561,1.270377249995363,47.48131670001021,None,47.48131670001021,None,47.48131670001021,None,47.48131670001021,47.989372700001695,47.48131670001021,None,,,,,,,,,,,,,,,,,,,,,,,,,,,,,,,,,,,,,,,,,,,,,,,,,,,,,,,,,,,,,0,001,2020_Oct_14_1352,vm_20xx,2020.2.4,60.01125811041845,
-0.3,-0.3,0,,,,,0,9,9,10,,,,,,,,,,,,,,,,,,,,,48.49165290000383,None,48.49165290000383,None,49.40474169999652,None,48.49165290000383,None,"[0.0, 0.0, 0.0, 0.0, 0.0, 0.0, 0.0, 0.0, 0.0, 0.0, 0.0, 0.0, 0.0, 0.0, 0.0, 0.0, 0.0, 0.0, 0.0, 0.0, 0.0, 0.0, 0.0, 0.0, 0.0, 0.0, 0.0, 0.0, 0.0, 0.0, 0.0, 0.0, 0.0, 0.0, 0.0, 0.0, 0.0, 0.0, 0.0, 0.0, 0.0, 0.0, 0.0, 0.0, 0.0, 0.0, 0.0, 0.0, 0.0, 0.0, 0.0, 0.0, 0.0, 0.0, 0.0, 0.0]","[0.0, 0.0, 0.0, 0.0, 0.0, 0.0, 0.0, 0.0, 0.0, 0.0, 0.0, 0.0, 0.0, 0.0, 0.0, 0.0, 0.0, 0.0, 0.0, 0.0, 0.0, 0.0, 0.0, 0.0, 0.0, 0.0, 0.0, 0.0, 0.0, 0.0, 0.0, 0.0, 0.0, 0.0, 0.0, 0.0, 0.0, 0.0, 0.0, 0.0, 0.0, 0.0, 0.0, 0.0, 0.0, 0.0, 0.0, 0.0, 0.0, 0.0, 0.0, 0.0, 0.0, 0.0, 0.0, 0.0]","[0, 0, 0, 0, 0, 0, 0, 0, 0, 0, 0, 0, 0, 0, 0, 0, 0, 0, 0, 0, 0, 0, 0, 0, 0, 0, 0, 0, 0, 0, 0, 0, 0, 0, 0, 0, 0, 0, 0, 0, 0, 0, 0, 0, 0, 0, 0, 0, 0, 0, 0, 0, 0, 0, 0, 0]","[0, 0, 0, 0, 0, 0, 0, 0, 0, 0, 0, 0, 0, 0, 0, 0, 0, 0, 0, 0, 0, 0, 0, 0, 0, 0, 0, 0, 0, 0, 0, 0, 0, 0, 0, 0, 0, 0, 0, 0, 0, 0, 0, 0, 0, 0, 0, 0, 0, 0, 0, 0, 0, 0, 0, 0]","[0, 0, 0, 0, 0, 0, 0, 0, 0, 0, 0, 0, 0, 0, 0, 0, 0, 0, 0, 0, 0, 0, 0, 0, 0, 0, 0, 0, 0, 0, 0, 0, 0, 0, 0, 0, 0, 0, 0, 0, 0, 0, 0, 0, 0, 0, 0, 0, 0, 0, 0, 0, 0, 0, 0, 0]","[0.00035090000892523676, 0.014678799998364411, 0.029483800011803396, 0.044835500011686236, 0.06147880000935402, 0.07820930000161752, 0.09474080000654794, 0.11149160000786651, 0.12834130000555888, 0.14489150000736117, 0.1624807000043802, 0.17820300000312272, 0.1947206000040751, 0.21124540000164416, 0.22798140000668354, 0.24488550001115073, 0.2613047000049846, 0.2779842000018107, 0.2945932000002358, 0.31132849999994505, 0.3280369999993127, 0.3446206000080565, 0.3612076999997953, 0.3779601999995066, 0.39434780000010505, 0.41125810000812635, 0.4279673000128241, 0.4444932000042172, 0.46107870001287665, 0.477855000004638, 0.4944787999993423, 0.5113114999985555, 0.5277534000051674, 0.5444317000074079, 0.5610058000020217, 0.5779260000126669, 0.5942630000063218, 0.6109092000115197, 0.6278072999994038, 0.6446696000057273, 0.6610239000001457, 0.6776413000043249, 0.6943210000026738, 0.7109900000068592, 0.7277315000101225, 0.7443055000039749, 0.760897300002398, 0.7776362000004156, 0.7941954999987502, 0.8107783000014024, 0.8274448000011034, 0.8445809000113513, 0.8607984000118449, 0.8777927000046475, 0.8940198000054806, 0.910757100005867]",0.01095424999948591,0.9379021499917144,50.530431200008024,None,50.530431200008024,None,50.530431200008024,None,50.530431200008024,51.03637250000611,50.530431200008024,None,,,,,,,,,,,,,,,,,,,,,,,,,,,,,,,,,,,,,,,,,,,,,,,,,,,,,,,,,,,,,0,001,2020_Oct_14_1352,vm_20xx,2020.2.4,60.01125811041845,
0.3,0.3,0,,,,,0,10,10,12,,,,,,,,,,,,,,,,,,,,,51.52244410000276,None,51.52244410000276,None,52.60163590000593,None,51.52244410000276,None,"[0.0, 0.0, 0.0, 0.0, 0.0, 0.0, 0.0, 0.0, 0.0, 0.0, 0.0, 0.0, 0.0, 0.0, 0.0, 0.0, 0.0, 0.0, 0.0, 0.0, 0.0, 0.0, 0.0, 0.0, 0.0, 0.0, 0.0, 0.0, 0.0, 0.0, 0.0, 0.0, 0.0, 0.0, 0.0, 0.0, 0.0, 0.0, 0.0, 0.0, 0.0, 0.0, 0.0, 0.0, 0.0, 0.0, 0.0, 0.0, 0.0, 0.0, 0.0, 0.0, 0.0, 0.0, 0.0, 0.0, 0.0, 0.0, 0.0, 0.0, 0.0, 0.0, 0.0, 0.0, 0.0, 0.0, 0.0]","[0.0, 0.0, 0.0, 0.0, 0.0, 0.0, 0.0, 0.0, 0.0, 0.0, 0.0, 0.0, 0.0, 0.0, 0.0, 0.0, 0.0, 0.0, 0.0, 0.0, 0.0, 0.0, 0.0, 0.0, 0.0, 0.0, 0.0, 0.0, 0.0, 0.0, 0.0, 0.0, 0.0, 0.0, 0.0, 0.0, 0.0, 0.0, 0.0, 0.0, 0.0, 0.0, 0.0, 0.0, 0.0, 0.0, 0.0, 0.0, 0.0, 0.0, 0.0, 0.0, 0.0, 0.0, 0.0, 0.0, 0.0, 0.0, 0.0, 0.0, 0.0, 0.0, 0.0, 0.0, 0.0, 0.0, 0.0]","[0, 0, 0, 0, 0, 0, 0, 0, 0, 0, 0, 0, 0, 0, 0, 0, 0, 0, 0, 0, 0, 0, 0, 0, 0, 0, 0, 0, 0, 0, 0, 0, 0, 0, 0, 0, 0, 0, 0, 0, 0, 0, 0, 0, 0, 0, 0, 0, 0, 0, 0, 0, 0, 0, 0, 0, 0, 0, 0, 0, 0, 0, 0, 0, 0, 0, 0]","[0, 0, 0, 0, 0, 0, 0, 0, 0, 0, 0, 0, 0, 0, 0, 0, 0, 0, 0, 0, 0, 0, 0, 0, 0, 0, 0, 0, 0, 0, 0, 0, 0, 0, 0, 0, 0, 0, 0, 0, 0, 0, 0, 0, 0, 0, 0, 0, 0, 0, 0, 0, 0, 0, 0, 0, 0, 0, 0, 0, 0, 0, 0, 0, 0, 0, 0]","[0, 0, 0, 0, 0, 0, 0, 0, 0, 0, 0, 0, 0, 0, 0, 0, 0, 0, 0, 0, 0, 0, 0, 0, 0, 0, 0, 0, 0, 0, 0, 0, 0, 0, 0, 0, 0, 0, 0, 0, 0, 0, 0, 0, 0, 0, 0, 0, 0, 0, 0, 0, 0, 0, 0, 0, 0, 0, 0, 0, 0, 0, 0, 0, 0, 0, 0]","[0.0003249000001233071, 0.013997799993376248, 0.028632500005187467, 0.04415800000424497, 0.06068819999927655, 0.07831270000315271, 0.09502789999532979, 0.11121129999810364, 0.12747799999488052, 0.14438019999943208, 0.16058529999281745, 0.17728150000039022, 0.19380269999965094, 0.21053379999648314, 0.22734260000288486, 0.24459630000637844, 0.26050689999829046, 0.27714879999984987, 0.29377809999277815, 0.3105057999928249, 0.32722520000243094, 0.3438075000012759, 0.36198940000031143, 0.37698960000125226, 0.3937036999996053, 0.41052079999644775, 0.4270795000047656, 0.4435899999953108, 0.46037889999570325, 0.4771318999992218, 0.493470300003537, 0.5103819000069052, 0.5269911000068532, 0.5440475999930641, 0.5602738000015961, 0.5769639000063762, 0.593473000000813, 0.6100383000011789, 0.6268649999983609, 0.6434633000026224, 0.6601705000066431, 0.6767544000031194, 0.6938086000009207, 0.7100317000003997, 0.7268615999928443, 0.7432402999984333, 0.7601008000056027, 0.7767336999968393, 0.793317699994077, 0.8103433000069344, 0.8267234999948414, 0.8433147000032477, 0.8599757000047248, 0.8767265000060434, 0.8933231999981217, 0.909891899995273, 0.9266481999948155, 0.9433579000033205, 0.9599927999952342, 0.9765324000036344, 0.9932499999995343, 1.0099026999960188, 1.0265035000047646, 1.0431949000048917, 1.0598157000058563, 1.0766113999998197, 1.0931515999982366]",0.00992745000985451,1.1192395499965642,53.528297400000156,None,53.528297400000156,None,53.528297400000156,None,53.528297400000156,54.03373070000089,53.528297400000156,None,,,,,,,,,,,,,,,,,,,,,,,,,,,,,,,,,,,,,,,,,,,,,,,,,,,,,,,,,,,,,0,001,2020_Oct_14_1352,vm_20xx,2020.2.4,60.01125811041845,
-0.3,0.3,0,,,,,0,11,11,5,,,,,,,,,,,,,,,,,,,,,54.51960700000927,None,54.51960700000927,None,55.34909860001062,None,54.51960700000927,None,"[0.0, 0.0, 0.0, 0.0, 0.0, 0.0, 0.0, 0.0, 0.0, 0.0, 0.0, 0.0, 0.0, 0.0, 0.0, 0.0, 0.0, 0.0, 0.0, 0.0, 0.0, 0.0, 0.0, 0.0, 0.0, 0.0, 0.0, 0.0, 0.0, 0.0, 0.0, 0.0, 0.0, 0.0, 0.0, 0.0, 0.0, 0.0, 0.0, 0.0, 0.0, 0.0, 0.0, 0.0, 0.0, 0.0, 0.0, 0.0, 0.0, 0.0, 0.0]","[0.0, 0.0, 0.0, 0.0, 0.0, 0.0, 0.0, 0.0, 0.0, 0.0, 0.0, 0.0, 0.0, 0.0, 0.0, 0.0, 0.0, 0.0, 0.0, 0.0, 0.0, 0.0, 0.0, 0.0, 0.0, 0.0, 0.0, 0.0, 0.0, 0.0, 0.0, 0.0, 0.0, 0.0, 0.0, 0.0, 0.0, 0.0, 0.0, 0.0, 0.0, 0.0, 0.0, 0.0, 0.0, 0.0, 0.0, 0.0, 0.0, 0.0, 0.0]","[0, 0, 0, 0, 0, 0, 0, 0, 0, 0, 0, 0, 0, 0, 0, 0, 0, 0, 0, 0, 0, 0, 0, 0, 0, 0, 0, 0, 0, 0, 0, 0, 0, 0, 0, 0, 0, 0, 0, 0, 0, 0, 0, 0, 0, 0, 0, 0, 0, 0, 0]","[0, 0, 0, 0, 0, 0, 0, 0, 0, 0, 0, 0, 0, 0, 0, 0, 0, 0, 0, 0, 0, 0, 0, 0, 0, 0, 0, 0, 0, 0, 0, 0, 0, 0, 0, 0, 0, 0, 0, 0, 0, 0, 0, 0, 0, 0, 0, 0, 0, 0, 0]","[0, 0, 0, 0, 0, 0, 0, 0, 0, 0, 0, 0, 0, 0, 0, 0, 0, 0, 0, 0, 0, 0, 0, 0, 0, 0, 0, 0, 0, 0, 0, 0, 0, 0, 0, 0, 0, 0, 0, 0, 0, 0, 0, 0, 0, 0, 0, 0, 0, 0, 0]","[0.00034980000054929405, 0.014042500013601966, 0.028671300009591505, 0.044028100004652515, 0.06090780001250096, 0.07764710001356434, 0.09395230001246091, 0.11091170000145212, 0.12740740001027007, 0.14408290000574198, 0.16050620000169147, 0.17752190001192503, 0.1939631000132067, 0.21067140001105145, 0.22740390000399202, 0.24382730000070296, 0.2606493000057526, 0.27723790000891313, 0.29390910000074655, 0.3105208000051789, 0.32733610000286717, 0.34378020001167897, 0.3604331000096863, 0.37724340001295786, 0.39379690001078416, 0.41049690000363626, 0.42885860000387765, 0.44375310000032187, 0.4604006000008667, 0.477088100000401, 0.4937311000103364, 0.5105275000096299, 0.5270385000039823, 0.5436760000011418, 0.5603777000069385, 0.577118100001826, 0.5936298000015086, 0.610309400013648, 0.6269924000080209, 0.6436198000010336, 0.6602910000074189, 0.6769344000058481, 0.6933799000107683, 0.7106170000042766, 0.7268700999993598, 0.7438142000028165, 0.7602208000025712, 0.7768292000109795, 0.7935871000081534, 0.8101655000064056, 0.8270254000090063]",0.010049250005977228,0.852938850002829,56.64088520000223,None,56.64088520000223,None,56.64088520000223,None,56.64088520000223,57.147311100008665,56.64088520000223,None,,,,,,,,,,,,,,,,,,,,,,,,,,,,,,,,,,,,,,,,,,,,,,,,,,,,,,,,,,,,,0,001,2020_Oct_14_1352,vm_20xx,2020.2.4,60.01125811041845,
0.3,-0.3,0,,,,,0,12,12,11,,,,,,,,,,,,,,,,,,,,,57.63323000000673,None,57.63323000000673,None,58.34629909999785,None,57.63323000000673,None,"[0.0, 0.0, 0.0, 0.0, 0.0, 0.0, 0.0, 0.0, 0.0, 0.0, 0.0, 0.0, 0.0, 0.0, 0.0, 0.0, 0.0, 0.0, 0.0, 0.0, 0.0, 0.0, 0.0, 0.0, 0.0, 0.0, 0.0, 0.0, 0.0, 0.0, 0.0, 0.0, 0.0, 0.0, 0.0, 0.0, 0.0, 0.0, 0.0, 0.0, 0.0, 0.0, 0.0, 0.0]","[0.0, 0.0, 0.0, 0.0, 0.0, 0.0, 0.0, 0.0, 0.0, 0.0, 0.0, 0.0, 0.0, 0.0, 0.0, 0.0, 0.0, 0.0, 0.0, 0.0, 0.0, 0.0, 0.0, 0.0, 0.0, 0.0, 0.0, 0.0, 0.0, 0.0, 0.0, 0.0, 0.0, 0.0, 0.0, 0.0, 0.0, 0.0, 0.0, 0.0, 0.0, 0.0, 0.0, 0.0]","[0, 0, 0, 0, 0, 0, 0, 0, 0, 0, 0, 0, 0, 0, 0, 0, 0, 0, 0, 0, 0, 0, 0, 0, 0, 0, 0, 0, 0, 0, 0, 0, 0, 0, 0, 0, 0, 0, 0, 0, 0, 0, 0, 0]","[0, 0, 0, 0, 0, 0, 0, 0, 0, 0, 0, 0, 0, 0, 0, 0, 0, 0, 0, 0, 0, 0, 0, 0, 0, 0, 0, 0, 0, 0, 0, 0, 0, 0, 0, 0, 0, 0, 0, 0, 0, 0, 0, 0]","[0, 0, 0, 0, 0, 0, 0, 0, 0, 0, 0, 0, 0, 0, 0, 0, 0, 0, 0, 0, 0, 0, 0, 0, 0, 0, 0, 0, 0, 0, 0, 0, 0, 0, 0, 0, 0, 0, 0, 0, 0, 0, 0, 0]","[0.0003130999975837767, 0.014211700006853789, 0.028594599993084557, 0.044425200001569465, 0.060998999993898906, 0.07778429999598302, 0.09443420000025071, 0.11113099999784026, 0.1276071000029333, 0.14433660000213422, 0.16084749999572523, 0.1775499000068521, 0.19439540000166744, 0.21081129999947734, 0.22764579999784473, 0.24428529999568127, 0.2609156999969855, 0.27750559999549296, 0.29417259999900125, 0.3105610000056913, 0.3275004000024637, 0.34420130000216886, 0.3606992999993963, 0.37763069999346044, 0.39409169999998994, 0.411078200006159, 0.42735349999566097, 0.44431819999590516, 0.4606824999937089, 0.47720369999296963, 0.4940422000072431, 0.5106190999940736, 0.5275159000011627, 0.5438641999935498, 0.5604182999959448, 0.5773131000023568, 0.5943162000039592, 0.6105002999975113, 0.6271085000043968, 0.6438772999972571, 0.6603919000044698, 0.6771583999943687, 0.6938149000052363, 0.7109390999976313]",0.010264649987220764,0.7367220499872928,59.51568959999713,None,59.51568959999713,None,59.51568959999713,None,59.51568959999713,60.02808669999649,59.51568959999713,None,,,,,,,,,,,,,,,,,,,,,,,,,,,,,,,,,,,,,,,,,,,,,,,,,,,,,,,,,,,,,0,001,2020_Oct_14_1352,vm_20xx,2020.2.4,60.01125811041845,
0.3,0.3,0,,,,,0,13,13,0,,,,,,,,,,,,,,,,,,,,,60.514005700009875,None,60.514005700009875,None,61.47675240000535,None,60.514005700009875,None,"[0.0, 0.0, 0.0, 0.0, 0.0, 0.0, 0.0, 0.0, 0.0, 0.0, 0.0, 0.0, 0.0, 0.0, 0.0, 0.0, 0.0, 0.0, 0.0, 0.0, 0.0, 0.0, 0.0, 0.0, 0.0, 0.0, 0.0, 0.0, 0.0, 0.0, 0.0, 0.0, 0.0, 0.0, 0.0, 0.0, 0.0, 0.0, 0.0, 0.0, 0.0, 0.0, 0.0, 0.0, 0.0, 0.0, 0.0, 0.0, 0.0, 0.0, 0.0, 0.0, 0.0, 0.0, 0.0, 0.0, 0.0, 0.0, 0.0]","[0.0, 0.0, 0.0, 0.0, 0.0, 0.0, 0.0, 0.0, 0.0, 0.0, 0.0, 0.0, 0.0, 0.0, 0.0, 0.0, 0.0, 0.0, 0.0, 0.0, 0.0, 0.0, 0.0, 0.0, 0.0, 0.0, 0.0, 0.0, 0.0, 0.0, 0.0, 0.0, 0.0, 0.0, 0.0, 0.0, 0.0, 0.0, 0.0, 0.0, 0.0, 0.0, 0.0, 0.0, 0.0, 0.0, 0.0, 0.0, 0.0, 0.0, 0.0, 0.0, 0.0, 0.0, 0.0, 0.0, 0.0, 0.0, 0.0]","[0, 0, 0, 0, 0, 0, 0, 0, 0, 0, 0, 0, 0, 0, 0, 0, 0, 0, 0, 0, 0, 0, 0, 0, 0, 0, 0, 0, 0, 0, 0, 0, 0, 0, 0, 0, 0, 0, 0, 0, 0, 0, 0, 0, 0, 0, 0, 0, 0, 0, 0, 0, 0, 0, 0, 0, 0, 0, 0]","[0, 0, 0, 0, 0, 0, 0, 0, 0, 0, 0, 0, 0, 0, 0, 0, 0, 0, 0, 0, 0, 0, 0, 0, 0, 0, 0, 0, 0, 0, 0, 0, 0, 0, 0, 0, 0, 0, 0, 0, 0, 0, 0, 0, 0, 0, 0, 0, 0, 0, 0, 0, 0, 0, 0, 0, 0, 0, 0]","[0, 0, 0, 0, 0, 0, 0, 0, 0, 0, 0, 0, 0, 0, 0, 0, 0, 0, 0, 0, 0, 0, 0, 0, 0, 0, 0, 0, 0, 0, 0, 0, 0, 0, 0, 0, 0, 0, 0, 0, 0, 0, 0, 0, 0, 0, 0, 0, 0, 0, 0, 0, 0, 0, 0, 0, 0, 0, 0]","[0.00031269999453797936, 0.014931199999409728, 0.029105399997206405, 0.04497980000451207, 0.061746399995172396, 0.07852900000580121, 0.09482549999665935, 0.11159240000415593, 0.12838829999964219, 0.14494009999907576, 0.16173049999633804, 0.17840160000196192, 0.19477919999917503, 0.2114714999916032, 0.22834279999369755, 0.24510499999450985, 0.2615187000046717, 0.27851730000111274, 0.2946975999948336, 0.31140330000198446, 0.32803239999338984, 0.3451054000033764, 0.3613398000015877, 0.3783811000030255, 0.39461889999802224, 0.41138580000551883, 0.4278706000040984, 0.4445768000005046, 0.46112429999629967, 0.47797179999179207, 0.49528279999503866, 0.5115415000036592, 0.5279041000030702, 0.544653200005996, 0.5615027000021655, 0.5778270000009798, 0.5944661999965319, 0.6111729999975068, 0.6278698999958578, 0.6443217000050936, 0.6610746999940602, 0.6777074999990873, 0.6944605000026058, 0.7109461999934865, 0.7277037000021664, 0.7449175999936415, 0.7609867999999551, 0.7783412999997381, 0.7943550000054529, 0.8109579000010854, 0.8276225000008708, 0.8443149999948218, 0.861003800004255, 0.8774968999932753, 0.8941352999972878, 0.9109557000047062, 0.9274855999974534, 0.9440162999962922, 0.9609741000022041]",0.010862950002774596,0.9877499499998521,62.51304089999758,None,62.51304089999758,None,62.51304089999758,None,62.51304089999758,63.02523210000072,62.51304089999758,None,,,,,,,,,,,,,,,,,,,,,,,,,,,,,,,,,,,,,,,,,,,,,,,,,,,,,,,,,,,,,0,001,2020_Oct_14_1352,vm_20xx,2020.2.4,60.01125811041845,
0.3,-0.3,0,,,,,0,14,14,7,,,,,,,,,,,,,,,,,,,,,63.51079210000171,None,63.51079210000171,None,64.29082320000452,None,63.51079210000171,None,"[0.0, 0.0, 0.0, 0.0, 0.0, 0.0, 0.0, 0.0, 0.0, 0.0, 0.0, 0.0, 0.0, 0.0, 0.0, 0.0, 0.0, 0.0, 0.0, 0.0, 0.0, 0.0, 0.0, 0.0, 0.0, 0.0, 0.0, 0.0, 0.0, 0.0, 0.0, 0.0, 0.0, 0.0, 0.0, 0.0, 0.0, 0.0, 0.0, 0.0, 0.0, 0.0, 0.0, 0.0, 0.0, 0.0, 0.0, 0.0, 0.0]","[0.0, 0.0, 0.0, 0.0, 0.0, 0.0, 0.0, 0.0, 0.0, 0.0, 0.0, 0.0, 0.0, 0.0, 0.0, 0.0, 0.0, 0.0, 0.0, 0.0, 0.0, 0.0, 0.0, 0.0, 0.0, 0.0, 0.0, 0.0, 0.0, 0.0, 0.0, 0.0, 0.0, 0.0, 0.0, 0.0, 0.0, 0.0, 0.0, 0.0, 0.0, 0.0, 0.0, 0.0, 0.0, 0.0, 0.0, 0.0, 0.0]","[0, 0, 0, 0, 0, 0, 0, 0, 0, 0, 0, 0, 0, 0, 0, 0, 0, 0, 0, 0, 0, 0, 0, 0, 0, 0, 0, 0, 0, 0, 0, 0, 0, 0, 0, 0, 0, 0, 0, 0, 0, 0, 0, 0, 0, 0, 0, 0, 0]","[0, 0, 0, 0, 0, 0, 0, 0, 0, 0, 0, 0, 0, 0, 0, 0, 0, 0, 0, 0, 0, 0, 0, 0, 0, 0, 0, 0, 0, 0, 0, 0, 0, 0, 0, 0, 0, 0, 0, 0, 0, 0, 0, 0, 0, 0, 0, 0, 0]","[0, 0, 0, 0, 0, 0, 0, 0, 0, 0, 0, 0, 0, 0, 0, 0, 0, 0, 0, 0, 0, 0, 0, 0, 0, 0, 0, 0, 0, 0, 0, 0, 0, 0, 0, 0, 0, 0, 0, 0, 0, 0, 0, 0, 0, 0, 0, 0, 0]","[0.0003102999908151105, 0.01460719999158755, 0.028573299990966916, 0.045137199995224364, 0.062100099996314384, 0.07938819999981206, 0.09499409999989439, 0.11175369999546092, 0.12834409999777563, 0.14500740000221413, 0.1616241000010632, 0.17826699999568518, 0.19491540000308305, 0.2115343000041321, 0.22832690000359435, 0.245232200002647, 0.2614515000022948, 0.278189199991175, 0.2952798000042094, 0.3114383999927668, 0.3283367999974871, 0.34477670000342187, 0.36135389999253675, 0.3780639000033261, 0.3947855000005802, 0.41188709999551065, 0.428097500000149, 0.44476399999985006, 0.46138359999167733, 0.47796659999585245, 0.4948127999959979, 0.5112760000047274, 0.5280014000018127, 0.5446550999913597, 0.5617438000044785, 0.5779442999919411, 0.5946601000032388, 0.6113043999939691, 0.6278310999914538, 0.6446761999977753, 0.6612139999924693, 0.6776997999986634, 0.6945723999961047, 0.7110425999999279, 0.727658200004953, 0.7443957999930717, 0.761053099995479, 0.7778358999930788, 0.7945250999910058]",0.010957550010061823,0.8213363500108244,65.14381680000224,None,65.14381680000224,None,65.14381680000224,None,65.14381680000224,65.64265140000498,65.14381680000224,None,,,,,,,,,,,,,,,,,,,,,,,,,,,,,,,,,,,,,,,,,,,,,,,,,,,,,,,,,,,,,0,001,2020_Oct_14_1352,vm_20xx,2020.2.4,60.01125811041845,
0.3,-0.3,0,,,,,0,15,15,3,,,,,,,,,,,,,,,,,,,,,66.14165299999877,None,66.14165299999877,None,67.32115250000788,None,66.14165299999877,None,"[0.0, 0.0, 0.0, 0.0, 0.0, 0.0, 0.0, 0.0, 0.0, 0.0, 0.0, 0.0, 0.0, 0.0, 0.0, 0.0, 0.0, 0.0, 0.0, 0.0, 0.0, 0.0, 0.0, 0.0, 0.0, 0.0, 0.0, 0.0, 0.0, 0.0, 0.0, 0.0, 0.0, 0.0, 0.0, 0.0, 0.0, 0.0, 0.0, 0.0, 0.0, 0.0, 0.0, 0.0, 0.0, 0.0, 0.0, 0.0, 0.0, 0.0, 0.0, 0.0, 0.0, 0.0, 0.0, 0.0, 0.0, 0.0, 0.0, 0.0, 0.0, 0.0, 0.0, 0.0, 0.0, 0.0, 0.0, 0.0, 0.0, 0.0, 0.0, 0.0]","[0.0, 0.0, 0.0, 0.0, 0.0, 0.0, 0.0, 0.0, 0.0, 0.0, 0.0, 0.0, 0.0, 0.0, 0.0, 0.0, 0.0, 0.0, 0.0, 0.0, 0.0, 0.0, 0.0, 0.0, 0.0, 0.0, 0.0, 0.0, 0.0, 0.0, 0.0, 0.0, 0.0, 0.0, 0.0, 0.0, 0.0, 0.0, 0.0, 0.0, 0.0, 0.0, 0.0, 0.0, 0.0, 0.0, 0.0, 0.0, 0.0, 0.0, 0.0, 0.0, 0.0, 0.0, 0.0, 0.0, 0.0, 0.0, 0.0, 0.0, 0.0, 0.0, 0.0, 0.0, 0.0, 0.0, 0.0, 0.0, 0.0, 0.0, 0.0, 0.0]","[0, 0, 0, 0, 0, 0, 0, 0, 0, 0, 0, 0, 0, 0, 0, 0, 0, 0, 0, 0, 0, 0, 0, 0, 0, 0, 0, 0, 0, 0, 0, 0, 0, 0, 0, 0, 0, 0, 0, 0, 0, 0, 0, 0, 0, 0, 0, 0, 0, 0, 0, 0, 0, 0, 0, 0, 0, 0, 0, 0, 0, 0, 0, 0, 0, 0, 0, 0, 0, 0, 0, 0]","[0, 0, 0, 0, 0, 0, 0, 0, 0, 0, 0, 0, 0, 0, 0, 0, 0, 0, 0, 0, 0, 0, 0, 0, 0, 0, 0, 0, 0, 0, 0, 0, 0, 0, 0, 0, 0, 0, 0, 0, 0, 0, 0, 0, 0, 0, 0, 0, 0, 0, 0, 0, 0, 0, 0, 0, 0, 0, 0, 0, 0, 0, 0, 0, 0, 0, 0, 0, 0, 0, 0, 0]","[0, 0, 0, 0, 0, 0, 0, 0, 0, 0, 0, 0, 0, 0, 0, 0, 0, 0, 0, 0, 0, 0, 0, 0, 0, 0, 0, 0, 0, 0, 0, 0, 0, 0, 0, 0, 0, 0, 0, 0, 0, 0, 0, 0, 0, 0, 0, 0, 0, 0, 0, 0, 0, 0, 0, 0, 0, 0, 0, 0, 0, 0, 0, 0, 0, 0, 0, 0, 0, 0, 0, 0]","[0.0003205999964848161, 0.014448199988692068, 0.02832519999356009, 0.044890199991641566, 0.06160609998914879, 0.07835349999368191, 0.094821899998351, 0.11140319998958148, 0.12821409999742173, 0.14491869999619666, 0.16185469999618363, 0.1781487999978708, 0.19476289999147411, 0.21141789999091998, 0.2285278999916045, 0.24470859998837113, 0.26142450000043027, 0.27819329999329057, 0.29501750000054017, 0.31144839999615215, 0.3280506999872159, 0.34470399998826906, 0.3612576000014087, 0.378101099995547, 0.39450070000020787, 0.4114380999963032, 0.42794989999674726, 0.44461589999264106, 0.4611200999934226, 0.47781250000116415, 0.49439069999789353, 0.5112565999879735, 0.5278809999872465, 0.5445089999993797, 0.5609975999977905, 0.5776377000001958, 0.594362399991951, 0.6111346999969101, 0.6277529999933904, 0.6443758999957936, 0.6610374000010779, 0.6777516000001924, 0.6943055000010645, 0.7109511999879032, 0.728097399987746, 0.7443147999874782, 0.7608794999978272, 0.7776611999870511, 0.7943090999906417, 0.8108346999943024, 0.8275576999876648, 0.8440045999886934, 0.860718399999314, 0.8775637999933679, 0.8942084000009345, 0.9108783999981824, 0.927585999990697, 0.9442508999927668, 0.9607413999910932, 0.9774227999878349, 0.9945016999990912, 1.0109380999929272, 1.0273864999908255, 1.0439549000002444, 1.0605742999905488, 1.0773012999998173, 1.0939603000006173, 1.1104423999931896, 1.127266999988933, 1.1439471999910893, 1.1605778999946779, 1.1772936999914236]",0.01088605000404641,1.204352150001796,68.02512140000181,None,68.02512140000181,None,68.02512140000181,None,68.02512140000181,68.53664910000225,68.02512140000181,None,,,,,,,,,,,,,,,,,,,,,,,,,,,,,,,,,,,,,,,,,,,,,,,,,,,,,,,,,,,,,0,001,2020_Oct_14_1352,vm_20xx,2020.2.4,60.01125811041845,
,,,,,,,,,,,,,,,,,,,,,,,,,,,,,,,,,,,,,,,,,,,,,,,,,,,,,,,,,69.0195670999965,None,0.2599561499810079,None,,,,,,,,,,,,,,,,,,,,,,,,,,,,,,,,,,,,,,,,,,,,,,,,,,,,,,,,,0,001,2020_Oct_14_1352,vm_20xx,2020.2.4,60.01125811041845,
-0.3,0.3,0,,,,,,,,,0,0,0,0,0,0,0,13,,,,,,,,,,,,,,,,,,,,,,,,,,,,,,,,,,,,,,,,,,,69.86688050000521,None,69.86688050000521,None,70.58531650000077,None,69.86688050000521,None,"[0.0, 0.0, 0.0, 0.0, 0.0, 0.0, 0.0, 0.0, 0.0, 0.0, 0.0, 0.0, 0.0, 0.0, 0.0, 0.0, 0.0, 0.0, 0.0, 0.0, 0.0, 0.0, 0.0, 0.0, 0.0, 0.0, 0.0, 0.0, 0.0, 0.0, 0.0, 0.0, 0.0, 0.0, 0.0, 0.0, 0.0, 0.0, 0.0, 0.0, 0.0, 0.0, 0.0, 0.0, 0.0, 0.0, 0.0, 0.0, 0.0, 0.0, 0.0, 0.0, 0.0, 0.0, 0.0, 0.0, 0.0, 0.0, 0.0, 0.0, 0.0, 0.0, 0.0, 0.0, 0.0, 0.0, 0.0, 0.0, 0.0, 0.0, 0.0, 0.0, 0.0, 0.0, 0.0, 0.0, 0.0, 0.0, 0.0, 0.0, 0.0, 0.0, 0.0, 0.0, 0.0, 0.0, 0.0, 0.0, 0.0, 0.0, 0.0, 0.0, -0.05185185185185185, -0.08703703703703704, -0.14537037037037037, -0.1814814814814815, -0.20277777777777778, -0.22314814814814815, -0.24259259259259258, -0.27037037037037037, -0.28888888888888886]","[0.0, 0.0, 0.0, 0.0, 0.0, 0.0, 0.0, 0.0, 0.0, 0.0, 0.0, 0.0, 0.0, 0.0, 0.0, 0.0, 0.0, 0.0, 0.0, 0.0, 0.0, 0.0, 0.0, 0.0, 0.0, 0.0, 0.0, 0.0, 0.0, 0.0, 0.0, 0.0, 0.0, 0.0, 0.0, 0.0, 0.0, 0.0, 0.0, 0.0, 0.0, 0.0, 0.0, 0.0, 0.0, 0.0, 0.0, 0.0, 0.0, 0.0, 0.0, 0.0, 0.0, 0.0, 0.0, 0.0, 0.0, 0.0, 0.0, 0.0, 0.0, 0.0, 0.0, 0.0, 0.0, 0.0, 0.0, 0.0, 0.0, 0.0, 0.0, 0.0, 0.0, 0.0, 0.0, 0.0, 0.0, 0.0, 0.0, 0.0, 0.0, 0.0, 0.0, 0.0, 0.0, 0.0, 0.0, 0.0, 0.0, 0.0, 0.0, 0.0, 0.03888888888888889, 0.075, 0.12407407407407407, 0.16203703703703703, 0.18425925925925926, 0.20555555555555555, 0.2222222222222222, 0.2537037037037037, 0.26944444444444443]","[0, 0, 0, 0, 0, 0, 0, 0, 0, 0, 0, 0, 0, 0, 0, 0, 0, 0, 0, 0, 0, 0, 0, 0, 0, 0, 0, 0, 0, 0, 0, 0, 0, 0, 0, 0, 0, 0, 0, 0, 0, 0, 0, 0, 0, 0, 0, 0, 0, 0, 0, 0, 0, 0, 0, 0, 0, 0, 0, 0, 0, 0, 0, 0, 0, 0, 0, 0, 0, 0, 0, 0, 0, 0, 0, 0, 0, 1, 1, 1, 1, 1, 1, 1, 1, 1, 1, 1, 1, 1, 1, 1, 1, 1, 1, 1, 1, 1, 1, 1, 1]","[0, 0, 0, 0, 0, 0, 0, 0, 0, 0, 0, 0, 0, 0, 0, 0, 0, 0, 0, 0, 0, 0, 0, 0, 0, 0, 0, 0, 0, 0, 0, 0, 0, 0, 0, 0, 0, 0, 0, 0, 0, 0, 0, 0, 0, 0, 0, 0, 0, 0, 0, 0, 0, 0, 0, 0, 0, 0, 0, 0, 0, 0, 0, 0, 0, 0, 0, 0, 0, 0, 0, 0, 0, 0, 0, 0, 0, 0, 0, 0, 0, 0, 0, 0, 0, 0, 0, 0, 0, 0, 0, 0, 0, 0, 0, 0, 0, 0, 0, 0, 0]","[0, 0, 0, 0, 0, 0, 0, 0, 0, 0, 0, 0, 0, 0, 0, 0, 0, 0, 0, 0, 0, 0, 0, 0, 0, 0, 0, 0, 0, 0, 0, 0, 0, 0, 0, 0, 0, 0, 0, 0, 0, 0, 0, 0, 0, 0, 0, 0, 0, 0, 0, 0, 0, 0, 0, 0, 0, 0, 0, 0, 0, 0, 0, 0, 0, 0, 0, 0, 0, 0, 0, 0, 0, 0, 0, 0, 0, 0, 0, 0, 0, 0, 0, 0, 0, 0, 0, 0, 0, 0, 0, 0, 0, 0, 0, 0, 0, 0, 0, 0, 0]","[0.0010418000019853935, 0.017731499989167787, 0.03376219999336172, 0.0511143999901833, 0.06698979999055155, 0.08370560000184923, 0.10015519999433309, 0.11691499999142252, 0.1321777999983169, 0.1487524999974994, 0.1658358999993652, 0.18221230000199284, 0.19897889999265317, 0.21557790000224486, 0.23224199999822304, 0.24959690000105184, 0.26662919999216683, 0.28442889999132603, 0.30011470000317786, 0.31684169999789447, 0.33315369999036193, 0.34995340000023134, 0.36655079999763984, 0.3831383999931859, 0.39978389999305364, 0.4165604000008898, 0.43314979999559, 0.4500943000020925, 0.4663391999929445, 0.4831421999988379, 0.49981399999524, 0.5164727999945171, 0.5337757999950554, 0.5496047999913571, 0.5663035999896238, 0.5829226999921957, 0.599820199990063, 0.6162826999934623, 0.6329280999925686, 0.6496285000030184, 0.6662923999974737, 0.6829166999959853, 0.6995432999974582, 0.7162840999953914, 0.7329306000028737, 0.7495249999919906, 0.7662233000010019, 0.7829322999896249, 0.7994433999992907, 0.8162095000006957, 0.832605199990212, 0.8499270000029355, 0.866316999992705, 0.8826208999962546, 0.8993746999913128, 0.9162681000016164, 0.9324603999993997, 0.9493684999906691, 0.9661022999935085, 0.9825822999991942, 0.9995282000018051, 1.0161994999944, 1.0327108999917982, 1.0493451999936951, 1.0661278999905335, 1.0826734000002034, 1.0993295999942347, 1.115881999998237, 1.133011300000362, 1.1494435999920825, 1.1659192999941297, 1.1824565999995684, 1.1991895999963162, 1.2159495999949286, 1.2325285999977496, 1.2492005999956746, 1.2658353000006173, 1.2852003000007244, 1.3005585999926552, 1.3149094999971567, 1.3316477999906056, 1.3486701999936486, 1.3650245000026189, 1.3816223999892827, 1.3984150999895064, 1.4150555999949574, 1.4321054000029108, 1.4482895999972243, 1.4650742999947397, 1.4816005999891786, 1.4983340000035241, 1.5159053999959724, 1.534678600000916, 1.5501408999989508, 1.5673357999912696, 1.5827775999932783, 1.6003747999930056, 1.6160204999905545, 1.6321317999972962, 1.64879999999539, 1.6663602999906288]",0.7436499500036007,None,72.2992213999969,None,72.2992213999969,None,72.2992213999969,None,72.2992213999969,72.79929480000283,72.2992213999969,None,,,,,,,,,,,,,,,,,,,,,,,,,,,,,,,0,001,2020_Oct_14_1352,vm_20xx,2020.2.4,60.01125811041845,
-0.3,-0.3,0,,,,,,,,,0,0,0,0,0,1,1,6,,,,,,,,,,,,,,,,,,,,,,,,,,,,,,,,,,,,,,,,,,,73.3022670000064,None,73.3022670000064,None,74.19802440000058,None,73.3022670000064,None,"[0.0, 0.0, 0.0, 0.0, 0.0, 0.0, 0.0, 0.0, 0.0, 0.0, 0.0, 0.0, 0.0, 0.0, 0.0, 0.0, 0.0, 0.0, 0.0, 0.0, 0.0, 0.0, 0.0, 0.0, 0.0, 0.0, 0.0, 0.0, 0.0, 0.0, 0.0, 0.0, 0.0, 0.0, 0.0, 0.0, 0.0, 0.0, 0.0, 0.0, 0.0, 0.0, 0.0, 0.0, 0.0, 0.0, -0.017592592592592594, -0.037037037037037035, -0.06851851851851852, -0.09537037037037037, -0.12222222222222222, -0.14444444444444443, -0.17777777777777778, -0.19907407407407407, -0.21203703703703702, -0.22592592592592592, -0.24074074074074073, -0.25092592592592594, -0.2564814814814815, -0.26296296296296295, -0.26851851851851855, -0.27314814814814814, -0.275, -0.27870370370370373, -0.28425925925925927, -0.287962962962963]","[0.0, 0.0, 0.0, 0.0, 0.0, 0.0, 0.0, 0.0, 0.0, 0.0, 0.0, 0.0, 0.0, 0.0, 0.0, 0.0, 0.0, 0.0, 0.0, 0.0, 0.0, 0.0, 0.0, 0.0, 0.0, 0.0, 0.0, 0.0, 0.0, 0.0, 0.0, 0.0, 0.0, 0.0, 0.0, 0.0, 0.0, 0.0, 0.0, 0.0, 0.0, 0.0, 0.0, 0.0, 0.0, 0.0, -0.019444444444444445, -0.04351851851851852, -0.07685185185185185, -0.1037037037037037, -0.1287037037037037, -0.15, -0.18796296296296297, -0.20555555555555555, -0.2175925925925926, -0.23148148148148148, -0.2462962962962963, -0.2564814814814815, -0.262037037037037, -0.2675925925925926, -0.2722222222222222, -0.275, -0.27685185185185185, -0.2814814814814815, -0.2861111111111111, -0.2898148148148148]","[0, 0, 0, 0, 0, 0, 0, 0, 0, 0, 0, 0, 0, 0, 0, 0, 0, 0, 0, 0, 0, 0, 0, 0, 0, 0, 0, 0, 0, 0, 1, 1, 1, 1, 1, 1, 1, 1, 1, 1, 1, 1, 1, 1, 1, 1, 1, 1, 1, 1, 1, 1, 1, 1, 1, 1, 1, 1, 1, 1, 1, 1, 1, 1, 1, 1]","[0, 0, 0, 0, 0, 0, 0, 0, 0, 0, 0, 0, 0, 0, 0, 0, 0, 0, 0, 0, 0, 0, 0, 0, 0, 0, 0, 0, 0, 0, 0, 0, 0, 0, 0, 0, 0, 0, 0, 0, 0, 0, 0, 0, 0, 0, 0, 0, 0, 0, 0, 0, 0, 0, 0, 0, 0, 0, 0, 0, 0, 0, 0, 0, 0, 0]","[0, 0, 0, 0, 0, 0, 0, 0, 0, 0, 0, 0, 0, 0, 0, 0, 0, 0, 0, 0, 0, 0, 0, 0, 0, 0, 0, 0, 0, 0, 0, 0, 0, 0, 0, 0, 0, 0, 0, 0, 0, 0, 0, 0, 0, 0, 0, 0, 0, 0, 0, 0, 0, 0, 0, 0, 0, 0, 0, 0, 0, 0, 0, 0, 0, 0]","[0.0009185999952023849, 0.017929699999513105, 0.03476490000321064, 0.05166460000327788, 0.06726169999456033, 0.08404449999216013, 0.10072619999118615, 0.11735099999350496, 0.1339488999947207, 0.15070460000424646, 0.16735550000157673, 0.18396709999069571, 0.2005109000019729, 0.217242200000328, 0.2339264999900479, 0.25090199999976903, 0.2672056000010343, 0.2838398000021698, 0.30096720000437927, 0.31710699999530334, 0.3337508999975398, 0.3503844999941066, 0.36742909999156836, 0.3839996000024257, 0.4003400999936275, 0.4172093999950448, 0.4336351999954786, 0.4505619999981718, 0.46700619999319315, 0.4846038999967277, 0.5016835999995237, 0.5165200999908848, 0.5331208999996306, 0.5497451999981422, 0.5667125000036322, 0.5830728000000818, 0.5996959999902174, 0.616384900000412, 0.6329872999922372, 0.649698699999135, 0.6662265999912051, 0.6829965999932028, 0.6999034999898868, 0.7163178999908268, 0.7329644999990705, 0.7499528000043938, 0.7673371999990195, 0.7835507999989204, 0.8003241999977035, 0.8166085999982897, 0.8337613999901805, 0.8505537000019103, 0.8667102000035811, 0.8844745999958832, 0.9001706999988528, 0.9168350999971153, 0.9337163000018336, 0.9512468000029912, 0.9671299000037834, 0.9833837999904063, 0.9998290999938035, 1.0174968999926932, 1.0334402000007685, 1.0506155000039143, 1.0666109000012511, 1.0832080999971367]",0.9188794499932555,None,75.32525860000169,None,75.32525860000169,None,75.32525860000169,None,75.32525860000169,75.8298930000019,75.32525860000169,None,,,,,,,,,,,,,,,,,,,,,,,,,,,,,,,0,001,2020_Oct_14_1352,vm_20xx,2020.2.4,60.01125811041845,
-0.3,-0.3,0,,,,,,,,,0,0,0,0,0,2,2,10,,,,,,,,,,,,,,,,,,,,,,,,,,,,,,,,,,,,,,,,,,,76.31374110000615,None,76.31374110000615,None,77.44497530000808,None,76.31374110000615,None,"[0.0, 0.0, 0.0, 0.0, 0.0, 0.0, 0.0, 0.0, 0.0, 0.0, 0.0, 0.0, 0.0, 0.0, 0.0, 0.0, 0.0, 0.0, 0.0, 0.0, 0.0, 0.0, 0.0, 0.0, 0.0, 0.0, 0.0, 0.0, 0.0, 0.0, 0.0, 0.0, 0.0, 0.0, 0.0, 0.0, 0.0, 0.0, 0.0, 0.0, 0.0, 0.0, 0.0, 0.0, 0.0, 0.0, 0.0, 0.0, 0.0, 0.0, 0.0, 0.0, 0.0, 0.0, 0.0, 0.0, 0.0, 0.0, 0.0, 0.000925925925925926, 0.003703703703703704, 0.005555555555555556, 0.006481481481481481, 0.009259259259259259, 0.009259259259259259, 0.012962962962962963, 0.012962962962962963, 0.012962962962962963, 0.012962962962962963, 0.008333333333333333, 0.007407407407407408, 0.004629629629629629, 0.003703703703703704, 0.003703703703703704]","[0.0, 0.0, 0.0, 0.0, 0.0, 0.0, 0.0, 0.0, 0.0, 0.0, 0.0, 0.0, 0.0, 0.0, 0.0, 0.0, 0.0, 0.0, 0.0, 0.0, 0.0, 0.0, 0.0, 0.0, 0.0, 0.0, 0.0, 0.0, 0.0, 0.0, 0.0, 0.0, 0.0, 0.0, 0.0, 0.0, 0.0, 0.0, 0.0, 0.0, 0.0, 0.0, 0.0, 0.0, 0.0, 0.0, 0.0, 0.0, 0.0, -0.008333333333333333, -0.03981481481481482, -0.05555555555555555, -0.07777777777777778, -0.09814814814814815, -0.11851851851851852, -0.13425925925925927, -0.15092592592592594, -0.1638888888888889, -0.1814814814814815, -0.19444444444444445, -0.21203703703703702, -0.22777777777777777, -0.24537037037037038, -0.2601851851851852, -0.27314814814814814, -0.29444444444444445, -0.30462962962962964, -0.3175925925925926, -0.33796296296296297, -0.3638888888888889, -0.37222222222222223, -0.38425925925925924, -0.39351851851851855, -0.4064814814814815]","[0, 0, 0, 0, 0, 0, 0, 0, 0, 0, 0, 0, 0, 0, 0, 0, 0, 0, 0, 0, 0, 0, 0, 0, 0, 0, 0, 0, 0, 0, 0, 0, 1, 1, 1, 1, 1, 1, 1, 1, 1, 1, 1, 1, 1, 1, 1, 1, 1, 1, 1, 1, 1, 1, 1, 1, 1, 1, 1, 1, 1, 1, 1, 1, 1, 1, 1, 1, 1, 1, 1, 1, 1, 1]","[0, 0, 0, 0, 0, 0, 0, 0, 0, 0, 0, 0, 0, 0, 0, 0, 0, 0, 0, 0, 0, 0, 0, 0, 0, 0, 0, 0, 0, 0, 0, 0, 0, 0, 0, 0, 0, 0, 0, 0, 0, 0, 0, 0, 0, 0, 0, 0, 0, 0, 0, 0, 0, 0, 0, 0, 0, 0, 0, 0, 0, 0, 0, 0, 0, 0, 0, 0, 0, 0, 0, 0, 0, 0]","[0, 0, 0, 0, 0, 0, 0, 0, 0, 0, 0, 0, 0, 0, 0, 0, 0, 0, 0, 0, 0, 0, 0, 0, 0, 0, 0, 0, 0, 0, 0, 0, 0, 0, 0, 0, 0, 0, 0, 0, 0, 0, 0, 0, 0, 0, 0, 0, 0, 0, 0, 0, 0, 0, 0, 0, 0, 0, 0, 0, 0, 0, 0, 0, 0, 0, 0, 0, 0, 0, 0, 0, 0, 0]","[0.0009250000002793968, 0.017418799994629808, 0.03407439999864437, 0.050747100001899526, 0.06740699999500066, 0.08396819999325089, 0.10065529998973943, 0.11733059999824036, 0.13404749998881016, 0.1506574999948498, 0.16736519998812582, 0.18390889999864157, 0.20052709999436047, 0.21734370000194758, 0.23386379999283236, 0.25054629999795, 0.2672552000003634, 0.28372929999022745, 0.3005377999943448, 0.3171346999879461, 0.3337135999900056, 0.35051869999733754, 0.36710579998907633, 0.38373000000137836, 0.4004203999938909, 0.4170453999977326, 0.4336475000018254, 0.45041869999840856, 0.4670383999909973, 0.4837513999955263, 0.5003111999976682, 0.5169286999880569, 0.5353776999982074, 0.5501630999933695, 0.5663482999952976, 0.5830351999902632, 0.5996504999930039, 0.6163267999945674, 0.6329835999931674, 0.6495932999969227, 0.6662543999991613, 0.6830465999955777, 0.699676799995359, 0.7163576000020839, 0.733089999994263, 0.7493805999984033, 0.7664203000022098, 0.7828468999941833, 0.8000877000013134, 0.8169543999974849, 0.8333434999949532, 0.8504691999987699, 0.8665902999928221, 0.8840466999972705, 0.8999650999903679, 0.9174713999964297, 0.9332899000000907, 0.9500178999878699, 0.9666839999990771, 0.9836419999919599, 1.0000979999895208, 1.016649500001222, 1.03310159999819, 1.0502394999930402, 1.066680499992799, 1.0830641999928048, 1.100176099993405, 1.1163857999927131, 1.1330401000013808, 1.1497985000023618, 1.167482499993639, 1.1828777999908198, 1.2000655000010738, 1.2163927999936277]",1.1570243499882054,None,78.69790749999811,None,78.69790749999811,None,78.69790749999811,None,78.69790749999811,79.2100025999971,78.69790749999811,None,,,,,,,,,,,,,,,,,,,,,,,,,,,,,,,0,001,2020_Oct_14_1352,vm_20xx,2020.2.4,60.01125811041845,
0.3,-0.3,0,,,,,,,,,0,0,0,0,0,3,3,3,,,,,,,,,,,,,,,,,,,,,,,,,,,,,,,,,,,,,,,,,,,79.69363840000005,None,79.69363840000005,None,80.94170700000541,None,79.69363840000005,None,"[0.0, 0.0, 0.0, 0.0, 0.0, 0.0, 0.0, 0.0, 0.0, 0.0, 0.0, 0.0, 0.0, 0.0, 0.0, 0.0, 0.0, 0.0, 0.0, 0.0, 0.0, 0.0, 0.0, 0.0, 0.0, 0.0, 0.0, 0.0, 0.0, 0.0, 0.0, 0.0, 0.0, 0.0, 0.0, 0.0, 0.0, 0.0, 0.0, 0.0, 0.0, 0.0, 0.0, 0.0, 0.0, 0.0, 0.0, 0.0, 0.028703703703703703, 0.04722222222222222, 0.06666666666666667, 0.08981481481481482, 0.10185185185185185, 0.12037037037037036, 0.1398148148148148, 0.1675925925925926, 0.18796296296296297, 0.21296296296296297, 0.2324074074074074, 0.26296296296296295, 0.2861111111111111, 0.3055555555555556, 0.3296296296296296, 0.34629629629629627, 0.36203703703703705]","[0.0, 0.0, 0.0, 0.0, 0.0, 0.0, 0.0, 0.0, 0.0, 0.0, 0.0, 0.0, 0.0, 0.0, 0.0, 0.0, 0.0, 0.0, 0.0, 0.0, 0.0, 0.0, 0.0, 0.0, 0.0, 0.0, 0.0, 0.0, 0.0, 0.0, 0.0, 0.0, 0.0, 0.0, 0.0, 0.0, 0.0, 0.0, 0.0, 0.0, 0.0, 0.0, 0.0, 0.0, 0.0, 0.0, 0.0, 0.0, -0.021296296296296296, -0.037037037037037035, -0.05185185185185185, -0.06481481481481481, -0.0712962962962963, -0.07777777777777778, -0.08333333333333333, -0.0962962962962963, -0.10648148148148148, -0.11666666666666667, -0.125, -0.13796296296296295, -0.14629629629629629, -0.15185185185185185, -0.16296296296296298, -0.1685185185185185, -0.17777777777777778]","[0, 0, 0, 0, 0, 0, 0, 0, 0, 0, 0, 0, 0, 0, 0, 0, 0, 0, 0, 0, 0, 0, 0, 0, 0, 0, 0, 0, 0, 0, 0, 0, 0, 1, 1, 1, 1, 1, 1, 1, 1, 1, 1, 1, 1, 1, 1, 1, 1, 1, 1, 1, 1, 1, 1, 1, 1, 1, 1, 1, 1, 1, 1, 1, 1]","[0, 0, 0, 0, 0, 0, 0, 0, 0, 0, 0, 0, 0, 0, 0, 0, 0, 0, 0, 0, 0, 0, 0, 0, 0, 0, 0, 0, 0, 0, 0, 0, 0, 0, 0, 0, 0, 0, 0, 0, 0, 0, 0, 0, 0, 0, 0, 0, 0, 0, 0, 0, 0, 0, 0, 0, 0, 0, 0, 0, 0, 0, 0, 0, 0]","[0, 0, 0, 0, 0, 0, 0, 0, 0, 0, 0, 0, 0, 0, 0, 0, 0, 0, 0, 0, 0, 0, 0, 0, 0, 0, 0, 0, 0, 0, 0, 0, 0, 0, 0, 0, 0, 0, 0, 0, 0, 0, 0, 0, 0, 0, 0, 0, 0, 0, 0, 0, 0, 0, 0, 0, 0, 0, 0, 0, 0, 0, 0, 0, 0]","[0.0009219000057782978, 0.017321999999694526, 0.03404199999931734, 0.05063309999241028, 0.06730389999574982, 0.08408119999512564, 0.10061670000141021, 0.11752659999183379, 0.1340591000043787, 0.1509063999983482, 0.1672612999973353, 0.1839276999962749, 0.20050150000315625, 0.21716539999761153, 0.2339910000009695, 0.25048859999515116, 0.26895430000149645, 0.2881353999982821, 0.3085475999978371, 0.3257016999996267, 0.3409807999996701, 0.35958499999833293, 0.3855626000004122, 0.40587370000139344, 0.4215909000049578, 0.4367121999966912, 0.45176640000136103, 0.466568300005747, 0.4836652999947546, 0.5016552000015508, 0.517296099991654, 0.5335989000013797, 0.5501647999917623, 0.5667358999926364, 0.5829970000049798, 0.5998964000027627, 0.616297200002009, 0.6339371999929426, 0.6507593999995152, 0.6669999000005191, 0.6841606999951182, 0.699820699999691, 0.7162996999977622, 0.7328765999991447, 0.7495941999950446, 0.7661054999916814, 0.7829086999990977, 0.799822300003143, 0.8174529999960214, 0.8332937999948626, 0.8500257999985479, 0.8663999999989755, 0.8837360000034096, 0.9001620000053663, 0.9166279999917606, 0.9352843999949982, 0.9497329000005266, 0.9666638000053354, 0.9833054000046104, 0.9998753999971086, 1.0168469000054756, 1.033434600001783, 1.0498253999976441, 1.066713799998979, 1.0831779000000097]",1.2733992500143358,None,82.06306580000091,None,82.06306580000091,None,82.06306580000091,None,82.06306580000091,82.57350470000529,82.06306580000091,None,,,,,,,,,,,,,,,,,,,,,,,,,,,,,,,0,001,2020_Oct_14_1352,vm_20xx,2020.2.4,60.01125811041845,
-0.3,0.3,0,,,,,,,,,0,0,0,0,0,4,4,1,,,,,,,,,,,,,,,,,,,,,,,,,,,,,,,,,,,,,,,,,,,83.05857500000275,None,83.05857500000275,None,83.97222180000972,None,83.05857500000275,None,"[0.0, 0.0, 0.0, 0.0, 0.0, 0.0, 0.0, 0.0, 0.0, 0.0, 0.0, 0.0, 0.0, 0.0, 0.0, 0.0, 0.0, 0.0, 0.0, 0.0, 0.0, 0.0, 0.0, 0.0, 0.0, 0.0, 0.0, 0.0, 0.0, 0.0, 0.0, 0.0, 0.0, 0.0, 0.0, 0.0, 0.0, 0.0, 0.0, 0.0, 0.0, 0.0, 0.0, 0.0, -0.002777777777777778, -0.018518518518518517, -0.03611111111111111, -0.058333333333333334, -0.09444444444444444, -0.1175925925925926, -0.14074074074074075, -0.1787037037037037, -0.19907407407407407, -0.2222222222222222, -0.24074074074074073, -0.26666666666666666, -0.2814814814814815, -0.29907407407407405, -0.31296296296296294, -0.32592592592592595]","[0.0, 0.0, 0.0, 0.0, 0.0, 0.0, 0.0, 0.0, 0.0, 0.0, 0.0, 0.0, 0.0, 0.0, 0.0, 0.0, 0.0, 0.0, 0.0, 0.0, 0.0, 0.0, 0.0, 0.0, 0.0, 0.0, 0.0, 0.0, 0.0, 0.0, 0.0, 0.0, 0.0, 0.0, 0.0, 0.0, 0.0, 0.0, 0.0, 0.0, 0.0, 0.0, 0.0, 0.0, -0.004629629629629629, -0.019444444444444445, -0.03518518518518519, -0.05462962962962963, -0.08055555555555556, -0.09351851851851851, -0.11203703703703703, -0.14074074074074075, -0.1537037037037037, -0.1675925925925926, -0.18055555555555555, -0.19814814814814816, -0.2111111111111111, -0.225, -0.23333333333333334, -0.24074074074074073]","[0, 0, 0, 0, 0, 0, 0, 0, 0, 0, 0, 0, 0, 0, 0, 0, 0, 0, 0, 0, 0, 0, 0, 0, 0, 0, 0, 0, 1, 1, 1, 1, 1, 1, 1, 1, 1, 1, 1, 1, 1, 1, 1, 1, 1, 1, 1, 1, 1, 1, 1, 1, 1, 1, 1, 1, 1, 1, 1, 1]","[0, 0, 0, 0, 0, 0, 0, 0, 0, 0, 0, 0, 0, 0, 0, 0, 0, 0, 0, 0, 0, 0, 0, 0, 0, 0, 0, 0, 0, 0, 0, 0, 0, 0, 0, 0, 0, 0, 0, 0, 0, 0, 0, 0, 0, 0, 0, 0, 0, 0, 0, 0, 0, 0, 0, 0, 0, 0, 0, 0]","[0, 0, 0, 0, 0, 0, 0, 0, 0, 0, 0, 0, 0, 0, 0, 0, 0, 0, 0, 0, 0, 0, 0, 0, 0, 0, 0, 0, 0, 0, 0, 0, 0, 0, 0, 0, 0, 0, 0, 0, 0, 0, 0, 0, 0, 0, 0, 0, 0, 0, 0, 0, 0, 0, 0, 0, 0, 0, 0, 0]","[0.0009255000040866435, 0.017328700007055886, 0.034000500003458, 0.05075829999987036, 0.06723780000174884, 0.08390690000669565, 0.1006030999997165, 0.11753650000900961, 0.13395640000817366, 0.15059230000770185, 0.16712009999901056, 0.1838320999959251, 0.20031090000702534, 0.21723340000608005, 0.2341699999960838, 0.25038389999826904, 0.2670658999995794, 0.2837584000080824, 0.3004849999997532, 0.31709090000367723, 0.33380370000668336, 0.3504345999972429, 0.3671823000040604, 0.38435380000737496, 0.4002500000060536, 0.4170665999990888, 0.4336676999955671, 0.4503263000078732, 0.4684125000057975, 0.48311800000374205, 0.4997418999992078, 0.5164172000077087, 0.5330931000062265, 0.5496742999966955, 0.5663559999957215, 0.5829763000074308, 0.5996001000021352, 0.6162836000003153, 0.6329332000022987, 0.6499975000042468, 0.6662665000039851, 0.6829108999954769, 0.6994318000070052, 0.7163221000082558, 0.7338713000062853, 0.7504779000009876, 0.7667937000078382, 0.7832809999963501, 0.7999664999952074, 0.816860999999335, 0.8333635000017239, 0.8500984999991488, 0.8668631000036839, 0.8834181999991415, 0.9000543000001926, 0.9169705999956932, 0.9342737999977544, 0.9499207000044407, 0.9676321000006283, 0.9828984000050696]",0.9400363500171807,None,84.99427190001006,None,84.99427190001006,None,84.99427190001006,None,84.99427190001006,85.50412219999998,84.99427190001006,None,,,,,,,,,,,,,,,,,,,,,,,,,,,,,,,0,001,2020_Oct_14_1352,vm_20xx,2020.2.4,60.01125811041845,
0.3,0.3,0,,,,,,,,,0,0,0,0,0,5,5,0,,,,,,,,,,,,,,,,,,,,,,,,,,,,,,,,,,,,,,,,,,,85.98793719999958,None,85.98793719999958,None,86.78606779999973,None,85.98793719999958,None,"[0.0, 0.0, 0.0, 0.0, 0.0, 0.0, 0.0, 0.0, 0.0, 0.0, 0.0, 0.0, 0.0, 0.0, 0.0, 0.0, 0.0, 0.0, 0.0, 0.0, 0.0, 0.0, 0.0, 0.0, 0.0, 0.0, 0.0, 0.0, 0.0, 0.0, 0.0, 0.0, 0.0, 0.0, 0.0, 0.0, 0.0, 0.0, 0.0, 0.0, 0.0, 0.0, 0.0, 0.0, 0.0, 0.0, 0.0, 0.0, 0.0, 0.0, 0.0, 0.0, 0.0, 0.0, 0.0, 0.0, -0.022222222222222223, -0.05277777777777778, -0.07222222222222222, -0.0962962962962963, -0.12037037037037036, -0.14074074074074075, -0.15833333333333333, -0.17685185185185184, -0.18888888888888888, -0.20092592592592592]","[0.0, 0.0, 0.0, 0.0, 0.0, 0.0, 0.0, 0.0, 0.0, 0.0, 0.0, 0.0, 0.0, 0.0, 0.0, 0.0, 0.0, 0.0, 0.0, 0.0, 0.0, 0.0, 0.0, 0.0, 0.0, 0.0, 0.0, 0.0, 0.0, 0.0, 0.0, 0.0, 0.0, 0.0, 0.0, 0.0, 0.0, 0.0, 0.0, 0.0, 0.0, 0.0, 0.0, 0.0, 0.0, 0.0, 0.0, 0.0, 0.0, 0.0, 0.0, 0.0, 0.0, 0.0, 0.0, 0.0, 0.03333333333333333, 0.08333333333333333, 0.11481481481481481, 0.15833333333333333, 0.2037037037037037, 0.23333333333333334, 0.262037037037037, 0.29074074074074074, 0.31574074074074077, 0.33796296296296297]","[0, 0, 0, 0, 0, 0, 0, 0, 0, 0, 0, 0, 0, 0, 0, 0, 0, 0, 0, 0, 0, 0, 0, 0, 0, 0, 0, 0, 0, 0, 0, 0, 0, 0, 0, 0, 0, 0, 0, 0, 0, 1, 1, 1, 1, 1, 1, 1, 1, 1, 1, 1, 1, 1, 1, 1, 1, 1, 1, 1, 1, 1, 1, 1, 1, 1]","[0, 0, 0, 0, 0, 0, 0, 0, 0, 0, 0, 0, 0, 0, 0, 0, 0, 0, 0, 0, 0, 0, 0, 0, 0, 0, 0, 0, 0, 0, 0, 0, 0, 0, 0, 0, 0, 0, 0, 0, 0, 0, 0, 0, 0, 0, 0, 0, 0, 0, 0, 0, 0, 0, 0, 0, 0, 0, 0, 0, 0, 0, 0, 0, 0, 0]","[0, 0, 0, 0, 0, 0, 0, 0, 0, 0, 0, 0, 0, 0, 0, 0, 0, 0, 0, 0, 0, 0, 0, 0, 0, 0, 0, 0, 0, 0, 0, 0, 0, 0, 0, 0, 0, 0, 0, 0, 0, 0, 0, 0, 0, 0, 0, 0, 0, 0, 0, 0, 0, 0, 0, 0, 0, 0, 0, 0, 0, 0, 0, 0, 0, 0]","[0.0009372999920742586, 0.01746449999336619, 0.03420749999349937, 0.05113419999543112, 0.06748820000211708, 0.08442620000278112, 0.10073839999677148, 0.11734509999223519, 0.13425119999737944, 0.15076409999164753, 0.1674191000056453, 0.1840465999994194, 0.20055979999597184, 0.21733699999458622, 0.23398269999597687, 0.25065089999407064, 0.2672623999969801, 0.28395840000302996, 0.30072859999199864, 0.31707629999436904, 0.3339828000025591, 0.35054509999463335, 0.3672445999982301, 0.3837809999968158, 0.4004466000042157, 0.41713839999283664, 0.4337498999957461, 0.4504032999975607, 0.46695919999910984, 0.4837344999978086, 0.5003913999971701, 0.5171432000061031, 0.5336745999957202, 0.5503208000009181, 0.5670180000015534, 0.5838442999956897, 0.6002937000012025, 0.6171347000054084, 0.6339557000028435, 0.6501560000033351, 0.6669151999958558, 0.6836088999989443, 0.6997544000041671, 0.7164084999967599, 0.7329878000018653, 0.7494863000029, 0.7661880999949062, 0.7829473000019789, 0.8000630000024103, 0.8172424999938812, 0.833765699993819, 0.8500670999928843, 0.8664218000049004, 0.8829535999975633, 0.8995222999947146, 0.9167235999921104, 0.9333050999994157, 0.9505611999920802, 0.9667801000032341, 0.9833596999960719, 1.000026900001103, 1.0169148999993922, 1.0336591999948723, 1.049643799997284, 1.0670761999936076, 1.0832871000020532]",0.8239735500101233,None,87.90710440000112,None,87.90710440000112,None,87.90710440000112,None,87.90710440000112,88.41786960000172,87.90710440000112,None,,,,,,,,,,,,,,,,,,,,,,,,,,,,,,,0,001,2020_Oct_14_1352,vm_20xx,2020.2.4,60.01125811041845,
0.3,0.3,0,,,,,,,,,0,0,0,0,0,6,6,8,,,,,,,,,,,,,,,,,,,,,,,,,,,,,,,,,,,,,,,,,,,88.90197390000685,None,88.90197390000685,None,89.41713180000079,None,88.90197390000685,None,"[0.0, 0.0, 0.0, 0.0, 0.0, 0.0, 0.0, 0.0, 0.0, 0.0, 0.0, 0.0, 0.0, 0.0, 0.0, 0.0, 0.0, 0.0, 0.0, 0.0, 0.0, 0.0, 0.0, 0.0, 0.0, 0.0, 0.0, 0.0, 0.0, 0.0, 0.0, 0.0, 0.0, 0.0, 0.0, 0.0, 0.0, 0.0, 0.0, 0.0, 0.0, 0.0, 0.0, 0.0, 0.0, 0.0, 0.0, -0.002777777777777778, -0.016666666666666666, -0.06666666666666667, -0.10462962962962963, -0.12685185185185185, -0.14907407407407408, -0.1675925925925926, -0.1787037037037037, -0.19074074074074074, -0.20185185185185187, -0.21296296296296297, -0.22037037037037038, -0.22962962962962963, -0.23703703703703705]","[0.0, 0.0, 0.0, 0.0, 0.0, 0.0, 0.0, 0.0, 0.0, 0.0, 0.0, 0.0, 0.0, 0.0, 0.0, 0.0, 0.0, 0.0, 0.0, 0.0, 0.0, 0.0, 0.0, 0.0, 0.0, 0.0, 0.0, 0.0, 0.0, 0.0, 0.0, 0.0, 0.0, 0.0, 0.0, 0.0, 0.0, 0.0, 0.0, 0.0, 0.0, 0.0, 0.0, 0.0, 0.0, 0.0, 0.0, 0.006481481481481481, 0.026851851851851852, 0.08518518518518518, 0.12962962962962962, 0.15185185185185185, 0.1814814814814815, 0.21203703703703702, 0.22870370370370371, 0.2518518518518518, 0.27037037037037037, 0.2898148148148148, 0.29907407407407405, 0.31574074074074077, 0.3277777777777778]","[0, 0, 0, 0, 0, 0, 0, 0, 0, 0, 0, 0, 0, 0, 0, 0, 0, 0, 0, 0, 0, 0, 0, 0, 0, 0, 0, 0, 0, 0, 0, 1, 1, 1, 1, 1, 1, 1, 1, 1, 1, 1, 1, 1, 1, 1, 1, 1, 1, 1, 1, 1, 1, 1, 1, 1, 1, 1, 1, 1, 1]","[0, 0, 0, 0, 0, 0, 0, 0, 0, 0, 0, 0, 0, 0, 0, 0, 0, 0, 0, 0, 0, 0, 0, 0, 0, 0, 0, 0, 0, 0, 0, 0, 0, 0, 0, 0, 0, 0, 0, 0, 0, 0, 0, 0, 0, 0, 0, 0, 0, 0, 0, 0, 0, 0, 0, 0, 0, 0, 0, 0, 0]","[0, 0, 0, 0, 0, 0, 0, 0, 0, 0, 0, 0, 0, 0, 0, 0, 0, 0, 0, 0, 0, 0, 0, 0, 0, 0, 0, 0, 0, 0, 0, 0, 0, 0, 0, 0, 0, 0, 0, 0, 0, 0, 0, 0, 0, 0, 0, 0, 0, 0, 0, 0, 0, 0, 0, 0, 0, 0, 0, 0, 0]","[0.0009225999965565279, 0.017348900000797585, 0.03390179999405518, 0.0506178999930853, 0.06733649999659974, 0.08389449999958742, 0.1006723000027705, 0.11747630000172649, 0.13370819999545347, 0.1505574000038905, 0.16740469999786, 0.1837489000026835, 0.201015800004825, 0.2171667999937199, 0.23381459999654908, 0.25051660000463016, 0.2671892999933334, 0.2837108999956399, 0.30115529999602586, 0.3170297000033315, 0.33424440000089817, 0.35081889999855775, 0.3670618000032846, 0.3836177999910433, 0.40027569999801926, 0.41697279999789316, 0.4335480000008829, 0.45020710000244435, 0.4668461999972351, 0.4836112999910256, 0.5000549999967916, 0.5192373000027146, 0.5334232000022894, 0.5497813999973005, 0.5663263000024017, 0.5828059999912512, 0.5996085999940988, 0.6162438000028487, 0.6327110999991419, 0.6499216999945929, 0.6661618999933125, 0.6829223999957321, 0.6994676000031177, 0.7161385999934282, 0.7328211999993073, 0.7494659999938449, 0.7662543999904301, 0.7833508000039728, 0.8004762999917148, 0.8170006000000285, 0.8333514999976614, 0.8504047000024002, 0.8667781999974977, 0.8835305999964476, 0.9009228999930201, 0.9164797999983421, 0.9333570000017062, 0.9498458000016399, 0.967260699995677, 0.9828944000037154, 1.0001400000037393]",0.5405335499963257,None,90.45993520000775,None,90.45993520000775,None,90.45993520000775,None,90.45993520000775,90.96564170000784,90.45993520000775,None,,,,,,,,,,,,,,,,,,,,,,,,,,,,,,,0,001,2020_Oct_14_1352,vm_20xx,2020.2.4,60.01125811041845,
0.3,0.3,0,,,,,,,,,0,0,0,0,0,7,7,4,,,,,,,,,,,,,,,,,,,,,,,,,,,,,,,,,,,,,,,,,,,91.45016410000972,None,91.45016410000972,None,92.01489910000237,None,91.45016410000972,None,"[0.0, 0.0, 0.0, 0.0, 0.0, 0.0, 0.0, 0.0, 0.0, 0.0, 0.0, 0.0, 0.0, 0.0, 0.0, 0.0, 0.0, 0.0, 0.0, 0.0, 0.0, 0.0, 0.0, 0.0, 0.0, 0.0, 0.0, 0.0, 0.0, 0.0, 0.0, 0.0, 0.0, 0.0, 0.0, 0.0, 0.0, 0.0, 0.0, 0.0, 0.0, 0.0, 0.0, 0.0, 0.0, 0.0, 0.0, -0.009259259259259259, -0.04814814814814815, -0.08981481481481482, -0.13703703703703704, -0.17314814814814813, -0.20092592592592592, -0.2324074074074074, -0.26296296296296295, -0.2777777777777778, -0.2935185185185185, -0.3055555555555556, -0.31851851851851853, -0.32685185185185184]","[0.0, 0.0, 0.0, 0.0, 0.0, 0.0, 0.0, 0.0, 0.0, 0.0, 0.0, 0.0, 0.0, 0.0, 0.0, 0.0, 0.0, 0.0, 0.0, 0.0, 0.0, 0.0, 0.0, 0.0, 0.0, 0.0, 0.0, 0.0, 0.0, 0.0, 0.0, 0.0, 0.0, 0.0, 0.0, 0.0, 0.0, 0.0, 0.0, 0.0, 0.0, 0.0, 0.0, 0.0, 0.0, 0.0, 0.0, 0.004629629629629629, 0.027777777777777776, 0.05740740740740741, 0.08611111111111111, 0.10925925925925926, 0.13055555555555556, 0.1527777777777778, 0.1712962962962963, 0.18518518518518517, 0.20092592592592592, 0.21296296296296297, 0.22407407407407406, 0.23055555555555557]","[0, 0, 0, 0, 0, 0, 0, 0, 0, 0, 0, 0, 0, 0, 0, 0, 0, 0, 0, 0, 0, 0, 0, 0, 0, 0, 0, 0, 0, 0, 0, 1, 1, 1, 1, 1, 1, 1, 1, 1, 1, 1, 1, 1, 1, 1, 1, 1, 1, 1, 1, 1, 1, 1, 1, 1, 1, 1, 1, 1]","[0, 0, 0, 0, 0, 0, 0, 0, 0, 0, 0, 0, 0, 0, 0, 0, 0, 0, 0, 0, 0, 0, 0, 0, 0, 0, 0, 0, 0, 0, 0, 0, 0, 0, 0, 0, 0, 0, 0, 0, 0, 0, 0, 0, 0, 0, 0, 0, 0, 0, 0, 0, 0, 0, 0, 0, 0, 0, 0, 0]","[0, 0, 0, 0, 0, 0, 0, 0, 0, 0, 0, 0, 0, 0, 0, 0, 0, 0, 0, 0, 0, 0, 0, 0, 0, 0, 0, 0, 0, 0, 0, 0, 0, 0, 0, 0, 0, 0, 0, 0, 0, 0, 0, 0, 0, 0, 0, 0, 0, 0, 0, 0, 0, 0, 0, 0, 0, 0, 0, 0]","[0.0012103999906685203, 0.017637500001001172, 0.03383220000250731, 0.050698999999440275, 0.0666367999947397, 0.0836795999930473, 0.10009989999525715, 0.11667849999503233, 0.13344759999017697, 0.1506533999927342, 0.16843710000102874, 0.18475229998875875, 0.1997784999985015, 0.216790199992829, 0.2332721999991918, 0.25007840000034776, 0.26657609999529086, 0.2841187000012724, 0.2999920000002021, 0.31654030000208877, 0.33327299999655224, 0.3503350999963004, 0.36755599999742117, 0.3832096999976784, 0.3996208000025945, 0.41542499999923166, 0.4313699999911478, 0.44804540000041015, 0.464548999996623, 0.4813702999963425, 0.497956899998826, 0.5158806999970693, 0.5309981999889715, 0.5474857999943197, 0.564197100000456, 0.5810679999995045, 0.5977888999914285, 0.6142050999915227, 0.6314982999901986, 0.6482471999916015, 0.6641986999893561, 0.6809204000019236, 0.6974263000010978, 0.7139683999994304, 0.7309696000011172, 0.747386799994274, 0.7640420999960043, 0.7811523999989731, 0.7977334000024712, 0.8145858999923803, 0.8314333000016632, 0.8478661999979522, 0.8641378999891458, 0.88114250000217, 0.8977202999958536, 0.9143233999930089, 0.931022299992037, 0.9477328999928432, 0.9647729999996955, 0.982936599990353]",0.5910760499973549,None,93.02108820001013,None,93.02108820001013,None,93.02108820001013,None,93.02108820001013,93.5297014000098,93.02108820001013,None,,,,,,,,,,,,,,,,,,,,,,,,,,,,,,,0,001,2020_Oct_14_1352,vm_20xx,2020.2.4,60.01125811041845,
-0.3,0.3,0,,,,,,,,,0,0,0,0,0,8,8,9,,,,,,,,,,,,,,,,,,,,,,,,,,,,,,,,,,,,,,,,,,,94.03037340000446,None,94.03037340000446,None,95.37809120000747,None,94.03037340000446,None,"[0.0, 0.0, 0.0, 0.0, 0.0, 0.0, 0.0, 0.0, 0.0, 0.0, 0.0, 0.0, 0.0, 0.0, 0.0, 0.0, 0.0, 0.0, 0.0, 0.0, 0.0, 0.0, 0.0, 0.0, 0.0, 0.0, 0.0, 0.0, 0.0, 0.0, 0.0, 0.0, 0.0, 0.0, 0.0, 0.0, 0.0, 0.0, 0.0, 0.0, 0.0, 0.0, 0.0, 0.0, 0.0, 0.0, 0.0, 0.0, 0.0, 0.0, 0.0, 0.0, -0.010185185185185186, -0.023148148148148147, -0.053703703703703705, -0.07314814814814814, -0.09537037037037037, -0.12407407407407407, -0.16111111111111112, -0.18703703703703703, -0.2074074074074074, -0.2351851851851852, -0.2574074074074074, -0.2722222222222222, -0.2833333333333333, -0.2935185185185185]","[0.0, 0.0, 0.0, 0.0, 0.0, 0.0, 0.0, 0.0, 0.0, 0.0, 0.0, 0.0, 0.0, 0.0, 0.0, 0.0, 0.0, 0.0, 0.0, 0.0, 0.0, 0.0, 0.0, 0.0, 0.0, 0.0, 0.0, 0.0, 0.0, 0.0, 0.0, 0.0, 0.0, 0.0, 0.0, 0.0, 0.0, 0.0, 0.0, 0.0, 0.0, 0.0, 0.0, 0.0, 0.0, 0.0, 0.0, 0.0, 0.0, 0.0, 0.0, 0.0, -0.01574074074074074, -0.03425925925925926, -0.07592592592592592, -0.09814814814814815, -0.12129629629629629, -0.14629629629629629, -0.1814814814814815, -0.20185185185185187, -0.2175925925925926, -0.24074074074074073, -0.25833333333333336, -0.26851851851851855, -0.27685185185185185, -0.2861111111111111]","[0, 0, 0, 0, 0, 0, 0, 0, 0, 0, 0, 0, 0, 0, 0, 0, 0, 0, 0, 0, 0, 0, 0, 0, 0, 0, 0, 0, 0, 0, 0, 0, 0, 0, 0, 0, 0, 1, 1, 1, 1, 1, 1, 1, 1, 1, 1, 1, 1, 1, 1, 1, 1, 1, 1, 1, 1, 1, 1, 1, 1, 1, 1, 1, 1, 1]","[0, 0, 0, 0, 0, 0, 0, 0, 0, 0, 0, 0, 0, 0, 0, 0, 0, 0, 0, 0, 0, 0, 0, 0, 0, 0, 0, 0, 0, 0, 0, 0, 0, 0, 0, 0, 0, 0, 0, 0, 0, 0, 0, 0, 0, 0, 0, 0, 0, 0, 0, 0, 0, 0, 0, 0, 0, 0, 0, 0, 0, 0, 0, 0, 0, 0]","[0, 0, 0, 0, 0, 0, 0, 0, 0, 0, 0, 0, 0, 0, 0, 0, 0, 0, 0, 0, 0, 0, 0, 0, 0, 0, 0, 0, 0, 0, 0, 0, 0, 0, 0, 0, 0, 0, 0, 0, 0, 0, 0, 0, 0, 0, 0, 0, 0, 0, 0, 0, 0, 0, 0, 0, 0, 0, 0, 0, 0, 0, 0, 0, 0, 0]","[0.0009212000004481524, 0.017426299993530847, 0.034605099994223565, 0.0541458999941824, 0.06961369999044109, 0.08445879998907913, 0.10074699998949654, 0.1174404999910621, 0.13538589999370743, 0.1506675999989966, 0.1678360999940196, 0.18400280000059865, 0.20048479999240953, 0.21805669998866506, 0.23391669998818543, 0.2503965999931097, 0.2672211999888532, 0.2840692999889143, 0.3004266999923857, 0.3170998999994481, 0.33377669999026693, 0.3504121000005398, 0.3675998999970034, 0.3837758000008762, 0.4003101999987848, 0.41760629999043886, 0.43371089998981915, 0.4502681999874767, 0.4673527999984799, 0.483619999999064, 0.5001982999965549, 0.5169628000003286, 0.5337012999953004, 0.5504365999950096, 0.5669404999935068, 0.5834724999876926, 0.6006319999869447, 0.6183158999920124, 0.6327780999999959, 0.6496679999982007, 0.666336099995533, 0.6828502999996999, 0.6995820999873104, 0.7162280999909854, 0.7329954999877373, 0.749650699988706, 0.7662724999972852, 0.7827921999996761, 0.7997476999880746, 0.8160149999894202, 0.8337424999917857, 0.8496540999913123, 0.8666636999987531, 0.8839423999888822, 0.8997276000009151, 0.9177354999992531, 0.9331375999900047, 0.9498339999991003, 0.9665195999987191, 0.9835102999932133, 0.9997675999911735, 1.016443699991214, 1.033209999994142, 1.050442399995518, 1.0670206999930087, 1.0837945999955991]",1.3733373499999288,None,96.49895940000715,None,96.49895940000715,None,96.49895940000715,None,96.49895940000715,97.00991249999788,96.49895940000715,None,,,,,,,,,,,,,,,,,,,,,,,,,,,,,,,0,001,2020_Oct_14_1352,vm_20xx,2020.2.4,60.01125811041845,
0.3,-0.3,0,,,,,,,,,0,0,0,0,0,9,9,15,,,,,,,,,,,,,,,,,,,,,,,,,,,,,,,,,,,,,,,,,,,97.49441200000001,None,97.49441200000001,None,98.62510689999908,None,97.49441200000001,None,"[0.0, 0.0, 0.0, 0.0, 0.0, 0.0, 0.0, 0.0, 0.0, 0.0, 0.0, 0.0, 0.0, 0.0, 0.0, 0.0, 0.0, 0.0, 0.0, 0.0, 0.0, 0.0, 0.0, 0.0, 0.0, 0.0, 0.0, 0.0, 0.0, 0.0, 0.0, 0.0, 0.0, 0.0, 0.0, 0.0, 0.0, 0.0, 0.0, 0.0, 0.0, 0.0, 0.0, 0.014814814814814815, 0.05092592592592592, 0.075, 0.09722222222222222, 0.12037037037037036, 0.14074074074074075, 0.16944444444444445, 0.19074074074074074, 0.2111111111111111, 0.23796296296296296, 0.25555555555555554, 0.26851851851851855, 0.28703703703703703, 0.29814814814814816, 0.3055555555555556, 0.3138888888888889, 0.3277777777777778, 0.3351851851851852, 0.3425925925925926, 0.3472222222222222, 0.35555555555555557, 0.3574074074074074, 0.3592592592592593]","[0.0, 0.0, 0.0, 0.0, 0.0, 0.0, 0.0, 0.0, 0.0, 0.0, 0.0, 0.0, 0.0, 0.0, 0.0, 0.0, 0.0, 0.0, 0.0, 0.0, 0.0, 0.0, 0.0, 0.0, 0.0, 0.0, 0.0, 0.0, 0.0, 0.0, 0.0, 0.0, 0.0, 0.0, 0.0, 0.0, 0.0, 0.0, 0.0, 0.0, 0.0, 0.0, 0.0, 0.012037037037037037, 0.03518518518518519, 0.05, 0.06481481481481481, 0.07962962962962963, 0.09259259259259259, 0.10833333333333334, 0.11851851851851852, 0.12777777777777777, 0.14166666666666666, 0.15185185185185185, 0.15648148148148147, 0.16574074074074074, 0.16944444444444445, 0.17407407407407408, 0.17592592592592593, 0.18055555555555555, 0.18518518518518517, 0.18703703703703703, 0.18888888888888888, 0.1925925925925926, 0.19537037037037036, 0.1962962962962963]","[0, 0, 0, 0, 0, 0, 0, 0, 0, 0, 0, 0, 0, 0, 0, 0, 0, 0, 0, 0, 0, 0, 0, 0, 0, 0, 0, 1, 1, 1, 1, 1, 1, 1, 1, 1, 1, 1, 1, 1, 1, 1, 1, 1, 1, 1, 1, 1, 1, 1, 1, 1, 1, 1, 1, 1, 1, 1, 1, 1, 1, 1, 1, 1, 1, 1]","[0, 0, 0, 0, 0, 0, 0, 0, 0, 0, 0, 0, 0, 0, 0, 0, 0, 0, 0, 0, 0, 0, 0, 0, 0, 0, 0, 0, 0, 0, 0, 0, 0, 0, 0, 0, 0, 0, 0, 0, 0, 0, 0, 0, 0, 0, 0, 0, 0, 0, 0, 0, 0, 0, 0, 0, 0, 0, 0, 0, 0, 0, 0, 0, 0, 0]","[0, 0, 0, 0, 0, 0, 0, 0, 0, 0, 0, 0, 0, 0, 0, 0, 0, 0, 0, 0, 0, 0, 0, 0, 0, 0, 0, 0, 0, 0, 0, 0, 0, 0, 0, 0, 0, 0, 0, 0, 0, 0, 0, 0, 0, 0, 0, 0, 0, 0, 0, 0, 0, 0, 0, 0, 0, 0, 0, 0, 0, 0, 0, 0, 0, 0]","[0.0009391000057803467, 0.01737499999580905, 0.034040400001686066, 0.050633699996978976, 0.0672921000077622, 0.08399139999528416, 0.10069330000260379, 0.1172385999961989, 0.1338949000055436, 0.15090490000147838, 0.1674007999972673, 0.18386950000422075, 0.20056110000587068, 0.21714110000175424, 0.23379460000433028, 0.25059999999939464, 0.2672253000055207, 0.284110900000087, 0.3004828999983147, 0.31705549999605864, 0.3337041000049794, 0.35039510000206064, 0.3670008000044618, 0.38452500000130385, 0.40024370000173803, 0.4169304999959422, 0.43370629999844823, 0.4518555999966338, 0.46628000000782777, 0.4832996000041021, 0.4997351000056369, 0.5163811000093119, 0.5330148000066401, 0.5495751999987988, 0.5663267000054475, 0.5828423000057228, 0.5998808000003919, 0.6162614000058966, 0.6328902000095695, 0.6494550000061281, 0.6661071999988053, 0.6830479000054765, 0.7000260000058915, 0.7166322999983095, 0.7334257000038633, 0.750100500008557, 0.7668912000081036, 0.783439000006183, 0.8000757999980124, 0.8181196000077762, 0.833922400008305, 0.850315400006366, 0.8666860000084853, 0.8841832000034628, 0.9005450999975437, 0.9164447000075597, 0.9339732000080403, 0.9505920000083279, 0.9666772000055062, 0.982998100007535, 1.0001487999979872, 1.0167014000035124, 1.0332308000070043, 1.0496702999953413, 1.0663672000082443, 1.0832695999997668]",1.1566585499967914,None,99.74480280000716,None,99.74480280000716,None,99.74480280000716,None,99.74480280000716,100.25665450000088,99.74480280000716,None,,,,,,,,,,,,,,,,,,,,,,,,,,,,,,,0,001,2020_Oct_14_1352,vm_20xx,2020.2.4,60.01125811041845,
-0.3,0.3,0,,,,,,,,,0,0,0,0,0,10,10,5,,,,,,,,,,,,,,,,,,,,,,,,,,,,,,,,,,,,,,,,,,,100.74267819999659,None,100.74267819999659,None,101.98861100000795,None,100.74267819999659,None,"[0.0, 0.0, 0.0, 0.0, 0.0, 0.0, 0.0, 0.0, 0.0, 0.0, 0.0, 0.0, 0.0, 0.0, 0.0, 0.0, 0.0, 0.0, 0.0, 0.0, 0.0, 0.0, 0.0, 0.0, 0.0, 0.0, 0.0, 0.0, 0.0, 0.0, 0.0, 0.0, 0.0, 0.0, 0.0, 0.0, 0.0, 0.0, 0.0, 0.0, -0.002777777777777778, -0.010185185185185186, -0.017592592592592594, -0.041666666666666664, -0.05740740740740741, -0.07222222222222222, -0.08703703703703704, -0.1175925925925926, -0.13518518518518519, -0.15185185185185185, -0.1685185185185185, -0.19722222222222222, -0.21481481481481482, -0.23333333333333334, -0.26481481481481484, -0.2814814814814815, -0.29444444444444445, -0.30833333333333335]","[0.0, 0.0, 0.0, 0.0, 0.0, 0.0, 0.0, 0.0, 0.0, 0.0, 0.0, 0.0, 0.0, 0.0, 0.0, 0.0, 0.0, 0.0, 0.0, 0.0, 0.0, 0.0, 0.0, 0.0, 0.0, 0.0, 0.0, 0.0, 0.0, 0.0, 0.0, 0.0, 0.0, 0.0, 0.0, 0.0, 0.0, 0.0, 0.0, 0.0, -0.004629629629629629, -0.012962962962962963, -0.021296296296296296, -0.03888888888888889, -0.05462962962962963, -0.06759259259259259, -0.07962962962962963, -0.1, -0.11296296296296296, -0.125, -0.1398148148148148, -0.16111111111111112, -0.175, -0.19074074074074074, -0.21944444444444444, -0.2324074074074074, -0.24259259259259258, -0.2537037037037037]","[0, 0, 0, 0, 0, 0, 0, 0, 0, 0, 0, 0, 0, 0, 0, 0, 0, 0, 0, 0, 0, 0, 0, 0, 0, 1, 1, 1, 1, 1, 1, 1, 1, 1, 1, 1, 1, 1, 1, 1, 1, 1, 1, 1, 1, 1, 1, 1, 1, 1, 1, 1, 1, 1, 1, 1, 1, 1]","[0, 0, 0, 0, 0, 0, 0, 0, 0, 0, 0, 0, 0, 0, 0, 0, 0, 0, 0, 0, 0, 0, 0, 0, 0, 0, 0, 0, 0, 0, 0, 0, 0, 0, 0, 0, 0, 0, 0, 0, 0, 0, 0, 0, 0, 0, 0, 0, 0, 0, 0, 0, 0, 0, 0, 0, 0, 0]","[0, 0, 0, 0, 0, 0, 0, 0, 0, 0, 0, 0, 0, 0, 0, 0, 0, 0, 0, 0, 0, 0, 0, 0, 0, 0, 0, 0, 0, 0, 0, 0, 0, 0, 0, 0, 0, 0, 0, 0, 0, 0, 0, 0, 0, 0, 0, 0, 0, 0, 0, 0, 0, 0, 0, 0, 0, 0]","[0.0009229999996023253, 0.017183300005854107, 0.03399120000540279, 0.05062970001017675, 0.0674081000033766, 0.08413640000799205, 0.10056269999768119, 0.11736080000991933, 0.13394010000047274, 0.15057189999788534, 0.16804689999844413, 0.1836914000014076, 0.20054760000493843, 0.2171844999975292, 0.23402420000638813, 0.2505056000081822, 0.26707149999856483, 0.2837714000052074, 0.30048820000956766, 0.31698859999596607, 0.3338802000071155, 0.3507067000027746, 0.36747640000248794, 0.38365830000839196, 0.40032760000030976, 0.4166860999976052, 0.4331494000070961, 0.44977279999875464, 0.46637160000682343, 0.48286540000117384, 0.4995878000045195, 0.5163928999972995, 0.5328983000072185, 0.549772500002291, 0.5663965999992797, 0.5830198000039672, 0.5997090000018943, 0.6163830000004964, 0.6329762999957893, 0.6498592999996617, 0.6680984999984503, 0.6832870000071125, 0.7002603000000818, 0.7166708000004292, 0.7339252000092529, 0.750040099999751, 0.7666488999966532, 0.7832439000048907, 0.800605500000529, 0.8165759999974398, 0.8333173999999417, 0.8501076999964425, 0.8665552000020398, 0.8834325000061654, 0.899983000010252, 0.9164066000084858, 0.9332907000061823, 0.9500135999987833]",1.270350850012619,None,102.97404420000385,None,102.97404420000385,None,102.97404420000385,None,102.97404420000385,103.48722429999907,102.97404420000385,None,,,,,,,,,,,,,,,,,,,,,,,,,,,,,,,0,001,2020_Oct_14_1352,vm_20xx,2020.2.4,60.01125811041845,
0.3,-0.3,0,,,,,,,,,0,0,0,0,0,11,11,11,,,,,,,,,,,,,,,,,,,,,,,,,,,,,,,,,,,,,,,,,,,103.97143869999854,None,103.97143869999854,None,105.18552520000958,None,103.97143869999854,None,"[0.0, 0.0, 0.0, 0.0, 0.0, 0.0, 0.0, 0.0, 0.0, 0.0, 0.0, 0.0, 0.0, 0.0, 0.0, 0.0, 0.0, 0.0, 0.0, 0.0, 0.0, 0.0, 0.0, 0.0, 0.0, 0.0, 0.0, 0.0, 0.0, 0.0, 0.0, 0.0, 0.0, 0.0, 0.0, 0.0, 0.0, 0.0, 0.0, 0.0, 0.0, 0.0, 0.0, 0.0, 0.014814814814814815, 0.030555555555555555, 0.05185185185185185, 0.09259259259259259, 0.11481481481481481, 0.13703703703703704, 0.15833333333333333, 0.18703703703703703, 0.20092592592592592, 0.21574074074074073, 0.22962962962962963, 0.25, 0.262037037037037, 0.26944444444444443, 0.2814814814814815, 0.29074074074074074, 0.29907407407407405]","[0.0, 0.0, 0.0, 0.0, 0.0, 0.0, 0.0, 0.0, 0.0, 0.0, 0.0, 0.0, 0.0, 0.0, 0.0, 0.0, 0.0, 0.0, 0.0, 0.0, 0.0, 0.0, 0.0, 0.0, 0.0, 0.0, 0.0, 0.0, 0.0, 0.0, 0.0, 0.0, 0.0, 0.0, 0.0, 0.0, 0.0, 0.0, 0.0, 0.0, 0.0, 0.0, 0.0, 0.0, 0.01574074074074074, 0.03333333333333333, 0.05740740740740741, 0.09537037037037037, 0.11296296296296296, 0.12962962962962962, 0.14722222222222223, 0.17037037037037037, 0.1824074074074074, 0.1962962962962963, 0.2101851851851852, 0.22870370370370371, 0.24074074074074073, 0.25092592592592594, 0.2638888888888889, 0.2759259259259259, 0.2851851851851852]","[0, 0, 0, 0, 0, 0, 0, 0, 0, 0, 0, 0, 0, 0, 0, 0, 0, 0, 0, 0, 0, 0, 0, 0, 0, 0, 0, 0, 0, 1, 1, 1, 1, 1, 1, 1, 1, 1, 1, 1, 1, 1, 1, 1, 1, 1, 1, 1, 1, 1, 1, 1, 1, 1, 1, 1, 1, 1, 1, 1, 1]","[0, 0, 0, 0, 0, 0, 0, 0, 0, 0, 0, 0, 0, 0, 0, 0, 0, 0, 0, 0, 0, 0, 0, 0, 0, 0, 0, 0, 0, 0, 0, 0, 0, 0, 0, 0, 0, 0, 0, 0, 0, 0, 0, 0, 0, 0, 0, 0, 0, 0, 0, 0, 0, 0, 0, 0, 0, 0, 0, 0, 0]","[0, 0, 0, 0, 0, 0, 0, 0, 0, 0, 0, 0, 0, 0, 0, 0, 0, 0, 0, 0, 0, 0, 0, 0, 0, 0, 0, 0, 0, 0, 0, 0, 0, 0, 0, 0, 0, 0, 0, 0, 0, 0, 0, 0, 0, 0, 0, 0, 0, 0, 0, 0, 0, 0, 0, 0, 0, 0, 0, 0, 0]","[0.0009219000057782978, 0.017442900003516115, 0.034083400008967146, 0.05078100001264829, 0.06744840000465047, 0.08402240001305472, 0.10070850000192877, 0.11757990000478458, 0.1340762000036193, 0.15069350000703707, 0.16725130000850186, 0.18396130000473931, 0.2006495000096038, 0.21732590001192875, 0.2340353000035975, 0.25055220001377165, 0.26730800000950694, 0.2838227000029292, 0.30047440000635106, 0.31718800000089686, 0.33370050000667106, 0.35045300000638235, 0.3670864000014262, 0.38364840000576805, 0.4013169000099879, 0.41702860000077635, 0.4340544000006048, 0.45036430000618566, 0.46733130000939127, 0.48316760000307113, 0.5005607000057353, 0.5165124000050128, 0.5330679000035161, 0.5498339000041597, 0.5664794000040274, 0.5830699000071036, 0.5998308000125689, 0.6165812000108417, 0.6332638000021689, 0.6495993999997154, 0.6662561000121059, 0.6828780000068946, 0.699911500007147, 0.7167760000011185, 0.734551300003659, 0.7511986000026809, 0.7670066000137012, 0.7835187000018777, 0.8002334000047995, 0.8168963000061922, 0.8333781000110321, 0.8502920000028098, 0.8685832000046503, 0.8836418999999296, 0.9000814000028186, 0.9166213000135031, 0.9336481000063941, 0.950629700004356, 0.9670398000016576, 0.9835496000014246, 1.0011580000136746]",1.2401838499936275,None,106.22394510000595,None,106.22394510000595,None,106.22394510000595,None,106.22394510000595,106.73389679999673,106.22394510000595,None,,,,,,,,,,,,,,,,,,,,,,,,,,,,,,,0,001,2020_Oct_14_1352,vm_20xx,2020.2.4,60.01125811041845,
-0.3,-0.3,0,,,,,,,,,0,0,0,0,0,12,12,2,,,,,,,,,,,,,,,,,,,,,,,,,,,,,,,,,,,,,,,,,,,107.21865439999965,None,107.21865439999965,None,108.44917480000004,None,107.21865439999965,None,"[0.0, 0.0, 0.0, 0.0, 0.0, 0.0, 0.0, 0.0, 0.0, 0.0, 0.0, 0.0, 0.0, 0.0, 0.0, 0.0, 0.0, 0.0, 0.0, 0.0, 0.0, 0.0, 0.0, 0.0, 0.0, 0.0, 0.0, 0.0, 0.0, 0.0, 0.0, 0.0, 0.0, 0.0, 0.0, 0.0, 0.0, 0.0, 0.0, 0.0, 0.0, 0.017592592592592594, 0.02962962962962963, 0.03611111111111111, 0.04537037037037037, 0.06481481481481481, 0.07777777777777778, 0.08703703703703704, 0.10740740740740741, 0.11851851851851852, 0.1287037037037037, 0.1361111111111111, 0.15185185185185185, 0.16111111111111112, 0.17222222222222222, 0.17962962962962964, 0.18981481481481483, 0.19722222222222222, 0.2064814814814815, 0.21851851851851853, 0.22962962962962963, 0.2351851851851852, 0.23981481481481481, 0.24444444444444444]","[0.0, 0.0, 0.0, 0.0, 0.0, 0.0, 0.0, 0.0, 0.0, 0.0, 0.0, 0.0, 0.0, 0.0, 0.0, 0.0, 0.0, 0.0, 0.0, 0.0, 0.0, 0.0, 0.0, 0.0, 0.0, 0.0, 0.0, 0.0, 0.0, 0.0, 0.0, 0.0, 0.0, 0.0, 0.0, 0.0, 0.0, 0.0, 0.0, 0.0, 0.0, -0.020370370370370372, -0.037037037037037035, -0.05, -0.06481481481481481, -0.09537037037037037, -0.11481481481481481, -0.13055555555555556, -0.16018518518518518, -0.18055555555555555, -0.19537037037037036, -0.20833333333333334, -0.23055555555555557, -0.24351851851851852, -0.25555555555555554, -0.262037037037037, -0.27314814814814814, -0.2814814814814815, -0.2898148148148148, -0.2972222222222222, -0.30833333333333335, -0.31296296296296294, -0.31851851851851853, -0.32314814814814813]","[0, 0, 0, 0, 0, 0, 0, 0, 0, 0, 0, 0, 0, 0, 0, 0, 0, 0, 0, 0, 0, 0, 0, 0, 0, 0, 1, 1, 1, 1, 1, 1, 1, 1, 1, 1, 1, 1, 1, 1, 1, 1, 1, 1, 1, 1, 1, 1, 1, 1, 1, 1, 1, 1, 1, 1, 1, 1, 1, 1, 1, 1, 1, 1]","[0, 0, 0, 0, 0, 0, 0, 0, 0, 0, 0, 0, 0, 0, 0, 0, 0, 0, 0, 0, 0, 0, 0, 0, 0, 0, 0, 0, 0, 0, 0, 0, 0, 0, 0, 0, 0, 0, 0, 0, 0, 0, 0, 0, 0, 0, 0, 0, 0, 0, 0, 0, 0, 0, 0, 0, 0, 0, 0, 0, 0, 0, 0, 0]","[0, 0, 0, 0, 0, 0, 0, 0, 0, 0, 0, 0, 0, 0, 0, 0, 0, 0, 0, 0, 0, 0, 0, 0, 0, 0, 0, 0, 0, 0, 0, 0, 0, 0, 0, 0, 0, 0, 0, 0, 0, 0, 0, 0, 0, 0, 0, 0, 0, 0, 0, 0, 0, 0, 0, 0, 0, 0, 0, 0, 0, 0, 0, 0]","[0.0009246999979950488, 0.01751559998956509, 0.03406019999238197, 0.05072379999910481, 0.06737839999550488, 0.08512940000218805, 0.10062109999125823, 0.11736139999993611, 0.13443249999545515, 0.15098439999565016, 0.16757069999584928, 0.18386150000151247, 0.2006041999993613, 0.217257399999653, 0.23387219999858644, 0.2505183000030229, 0.2672392999957083, 0.2838322000025073, 0.3004942999978084, 0.31731509999372065, 0.3337641999969492, 0.3509481999935815, 0.36701789998915046, 0.3840479999926174, 0.4003847999993013, 0.41712440000264905, 0.4351699999970151, 0.44954909999796655, 0.4664924999960931, 0.4831125999917276, 0.49972320000233594, 0.5164043999975547, 0.5328761999990093, 0.5496928999928059, 0.5662367999902926, 0.5830577000015182, 0.5995976999984123, 0.6162607000005664, 0.6328995999938343, 0.6498387999890838, 0.6676212000020314, 0.6833400999894366, 0.7004207999998471, 0.7169482999888714, 0.7339760000031674, 0.7501214999938384, 0.7670366999955149, 0.7835680999996839, 0.8006201999960467, 0.8167462999990676, 0.8336008999904152, 0.8499883999902522, 0.8666451000026427, 0.8834540999960154, 0.8999101999943377, 0.9165207999903942, 0.9331513999932213, 0.9512652999983402, 0.9670446999953128, 0.9834375999926124, 1.000050699993153, 1.016660299996147, 1.0331714999920223, 1.0499364999996033]",1.2555434499954572,None,109.53669249999803,None,109.53669249999803,None,109.53669249999803,None,109.53669249999803,110.04747070001031,109.53669249999803,None,,,,,,,,,,,,,,,,,,,,,,,,,,,,,,,0,001,2020_Oct_14_1352,vm_20xx,2020.2.4,60.01125811041845,
