target_x,target_y,rotation,trials.thisRepN,trials.thisTrialN,trials.thisN,trials.thisIndex,baseline_trials.thisRepN,baseline_trials.thisTrialN,baseline_trials.thisN,baseline_trials.thisIndex,blocks.thisRepN,blocks.thisTrialN,blocks.thisN,blocks.thisIndex,block_trials.thisRepN,block_trials.thisTrialN,block_trials.thisN,block_trials.thisIndex,transfer_trials.thisRepN,transfer_trials.thisTrialN,transfer_trials.thisN,transfer_trials.thisIndex,Welcome.started,Welcome.stopped,mouse.started,mouse.stopped,text_3.started,text_3.stopped,mouse_6.started,mouse_6.stopped,baseline_enclosing_1.started,baseline_enclosing_1.stopped,baseline_enclosing.started,baseline_enclosing.stopped,baseline_target.started,baseline_target.stopped,baseline_fixation.started,baseline_fixation.stopped,baseline_mouse.x,baseline_mouse.y,baseline_mouse.leftButton,baseline_mouse.midButton,baseline_mouse.rightButton,baseline_mouse.time,baseline_mouse.started,baseline_mouse.stopped,baseline_enclosing_feedback_1.started,baseline_enclosing_feedback_1.stopped,baseline_enclosing_feedback.started,baseline_enclosing_feedback.stopped,baseline_target_feedback.started,baseline_target_feedback.stopped,baseline_fixation_feedback.started,baseline_fixation_feedback.stopped,baseline_score_text.started,baseline_score_text.stopped,text_2.started,text_2.stopped,mouse_3.started,mouse_3.stopped,rotated_enclosing_1.started,rotated_enclosing_1.stopped,rotated_enclosing.started,rotated_enclosing.stopped,rotated_target.started,rotated_target.stopped,rotated_fixation.started,rotated_fixation.stopped,rotated_mouse.x,rotated_mouse.y,rotated_mouse.leftButton,rotated_mouse.midButton,rotated_mouse.rightButton,rotated_mouse.time,rotated_mouse.started,rotated_mouse.stopped,rotated_enclosing_feedback_1.started,rotated_enclosing_feedback_1.stopped,rotated_enclosing_feedback.started,rotated_enclosing_feedback.stopped,rotated_target_feedback.started,rotated_target_feedback.stopped,rotated_fixation_feedback.started,rotated_fixation_feedback.stopped,rotated_score_text.started,rotated_score_text.stopped,rotated_breaks.started,rotated_breaks.stopped,mouse_5.started,mouse_5.stopped,transfer_enclosing_1.started,transfer_enclosing_1.stopped,transfer_enclosing.started,transfer_enclosing.stopped,transfer_target.started,transfer_target.stopped,transfer_fixation.started,transfer_fixation.stopped,transfer_mouse.x,transfer_mouse.y,transfer_mouse.leftButton,transfer_mouse.midButton,transfer_mouse.rightButton,transfer_mouse.time,transfer_mouse.started,transfer_mouse.stopped,transfer_enclosing_feedback_1.started,transfer_enclosing_feedback_1.stopped,transfer_enclosing_feedback.started,transfer_enclosing_feedback.stopped,transfer_target_feedback.started,transfer_target_feedback.stopped,transfer_fixation_feedback.started,transfer_fixation_feedback.stopped,text_4.started,text_4.stopped,participant,session,date,expName,psychopyVersion,frameRate,
,,,,,,,,,,,,,,,,,,,,,,,25.977204700000584,None,0.0006832999060861766,None,,,,,,,,,,,,,,,,,,,,,,,,,,,,,,,,,,,,,,,,,,,,,,,,,,,,,,,,,,,,,,,,,,,,,,,,,,,,,,,,,,,,,,,,,,,0,001,2020_Oct_14_1335,vm_20xx,2020.2.4,59.62542118144081,
,,,,,,,,,,,,,,,,,,,,,,,,,,,27.074960400001146,None,1.0053469799895538,None,,,,,,,,,,,,,,,,,,,,,,,,,,,,,,,,,,,,,,,,,,,,,,,,,,,,,,,,,,,,,,,,,,,,,,,,,,,,,,,,,,,,,,,0,001,2020_Oct_14_1335,vm_20xx,2020.2.4,59.62542118144081,
-0.3,-0.3,0,,,,,0,0,0,14,,,,,,,,,,,,,,,,,,,,,28.567901400005212,None,28.567901400005212,None,30.040508000005502,None,28.567901400005212,None,"[0.0, 0.0, 0.0, 0.0, 0.0, 0.0, 0.0, 0.0, 0.0, 0.0, 0.0, 0.0, 0.0, 0.0, 0.0, 0.0, 0.0, 0.0, 0.0, 0.0, 0.0, 0.0, 0.0, 0.0, 0.0, 0.0, 0.0, 0.0, 0.0, 0.0, 0.0, 0.0, 0.0, 0.0, 0.0, 0.0, 0.0, 0.0, 0.0, 0.0, 0.0, 0.0, 0.0, 0.0, 0.0, 0.0, 0.0, 0.0, 0.0, 0.0, 0.0, 0.0, 0.0, 0.0, 0.0, 0.0, 0.0, 0.0, 0.0, 0.0, 0.0, 0.0, 0.0, 0.0, 0.0, 0.0, 0.0, 0.0, 0.0, 0.0, 0.0, 0.0, 0.0, 0.0, 0.0, 0.0, 0.0, 0.0, 0.0, 0.0, 0.0, 0.0, 0.0]","[0.0, 0.0, 0.0, 0.0, 0.0, 0.0, 0.0, 0.0, 0.0, 0.0, 0.0, 0.0, 0.0, 0.0, 0.0, 0.0, 0.0, 0.0, 0.0, 0.0, 0.0, 0.0, 0.0, 0.0, 0.0, 0.0, 0.0, 0.0, 0.0, 0.0, 0.0, 0.0, 0.0, 0.0, 0.0, 0.0, 0.0, 0.0, 0.0, 0.0, 0.0, 0.0, 0.0, 0.0, 0.0, 0.0, 0.0, 0.0, 0.0, 0.0, 0.0, 0.0, 0.0, 0.0, 0.0, 0.0, 0.0, 0.0, 0.0, 0.0, 0.0, 0.0, 0.0, 0.0, 0.0, 0.0, 0.0, 0.0, 0.0, 0.0, 0.0, 0.0, 0.0, 0.0, 0.0, 0.0, 0.0, 0.0, 0.0, 0.0, 0.0, 0.0, 0.0]","[0, 0, 0, 0, 0, 0, 0, 0, 0, 0, 0, 0, 0, 0, 0, 0, 0, 0, 0, 0, 0, 0, 0, 0, 0, 0, 0, 0, 0, 0, 0, 0, 0, 0, 0, 0, 0, 0, 0, 0, 0, 0, 0, 0, 0, 0, 0, 0, 0, 0, 0, 0, 0, 0, 0, 0, 0, 0, 0, 0, 0, 0, 0, 0, 0, 0, 0, 0, 0, 0, 0, 0, 0, 0, 0, 0, 0, 0, 0, 0, 0, 0, 0]","[0, 0, 0, 0, 0, 0, 0, 0, 0, 0, 0, 0, 0, 0, 0, 0, 0, 0, 0, 0, 0, 0, 0, 0, 0, 0, 0, 0, 0, 0, 0, 0, 0, 0, 0, 0, 0, 0, 0, 0, 0, 0, 0, 0, 0, 0, 0, 0, 0, 0, 0, 0, 0, 0, 0, 0, 0, 0, 0, 0, 0, 0, 0, 0, 0, 0, 0, 0, 0, 0, 0, 0, 0, 0, 0, 0, 0, 0, 0, 0, 0, 0, 0]","[0, 0, 0, 0, 0, 0, 0, 0, 0, 0, 0, 0, 0, 0, 0, 0, 0, 0, 0, 0, 0, 0, 0, 0, 0, 0, 0, 0, 0, 0, 0, 0, 0, 0, 0, 0, 0, 0, 0, 0, 0, 0, 0, 0, 0, 0, 0, 0, 0, 0, 0, 0, 0, 0, 0, 0, 0, 0, 0, 0, 0, 0, 0, 0, 0, 0, 0, 0, 0, 0, 0, 0, 0, 0, 0, 0, 0, 0, 0, 0, 0, 0, 0]","[0.000403900005039759, 0.01745179999852553, 0.03877189999911934, 0.057398999997531064, 0.07436939999752212, 0.10053219999826979, 0.12041619999217801, 0.13787299999967217, 0.1553282999957446, 0.17352830000163522, 0.19039930000144523, 0.20674690000305418, 0.22387449999223463, 0.24004200000490528, 0.2570782999973744, 0.27437620000273455, 0.2902944999950705, 0.3170408000005409, 0.33740899999975227, 0.35480610000377055, 0.3728910000063479, 0.39033939999353606, 0.4190842999960296, 0.4393986999930348, 0.45746910000161733, 0.4740601999947103, 0.4907970999920508, 0.5075977999949828, 0.5255695999949239, 0.5505311000015354, 0.5711807000043336, 0.5896367999957874, 0.6060092999978224, 0.6230863999953726, 0.6385778999974718, 0.6549151999934111, 0.6706708999990951, 0.6870634999941103, 0.7053391999943415, 0.7218754000059562, 0.7381426999927498, 0.7548294000007445, 0.7708542000036687, 0.7881516000052216, 0.8043349999934435, 0.8224102999956813, 0.8391483000013977, 0.8554050999955507, 0.8721678000001702, 0.8895106999989366, 0.9046621000015875, 0.9203992999973707, 0.9366723999992246, 0.953627900002175, 0.9707692999945721, 0.9883659000042826, 1.0056560999946669, 1.02313359999971, 1.0405857000005199, 1.0564102999924216, 1.082645100002992, 1.1033725000015693, 1.1203032000048552, 1.138342999998713, 1.1554600999952527, 1.1723908999993, 1.1888948999985587, 1.205930600001011, 1.2230259000061778, 1.2397414000006393, 1.255773800003226, 1.283229199994821, 1.3025972000032198, 1.31967139999324, 1.3367584999941755, 1.35417459999735, 1.3723295999952825, 1.3884109999926295, 1.416901799995685, 1.43728579999879, 1.4555903000000399, 1.4725524999957997, 1.4891204000014113]",0.008276599983219057,1.5275536999834003,31.053274300007615,None,31.053274300007615,None,31.053274300007615,None,31.053274300007615,31.553253699996276,31.053274300007615,None,,,,,,,,,,,,,,,,,,,,,,,,,,,,,,,,,,,,,,,,,,,,,,,,,,,,,,,,,,,,,0,001,2020_Oct_14_1335,vm_20xx,2020.2.4,59.62542118144081,
-0.3,-0.3,0,,,,,0,1,1,2,,,,,,,,,,,,,,,,,,,,,32.0518366000033,None,32.0518366000033,None,33.33234690000245,None,32.0518366000033,None,"[0.0, 0.0, 0.0, 0.0, 0.0, 0.0, 0.0, 0.0, 0.0, 0.0, 0.0, 0.0, 0.0, 0.0, 0.0, 0.0, 0.0, 0.0, 0.0, 0.0, 0.0, 0.0, 0.0, 0.0, 0.0, 0.0, 0.0, 0.0, 0.0, 0.0, 0.0, 0.0, 0.0, 0.0, 0.0, 0.0, 0.0, 0.0, 0.0, 0.0, 0.0, 0.0, 0.0, 0.0, 0.0, 0.0, 0.0, 0.0, 0.0, 0.0, 0.0, 0.0, 0.0, 0.0, 0.0, 0.0, 0.0, 0.0, 0.0, 0.0, 0.0, 0.0, 0.0, 0.0, 0.0, 0.0, 0.0, 0.0, 0.0, 0.0, 0.0, 0.0, 0.0, 0.0, 0.0, 0.0, 0.0, 0.0, 0.0]","[0.0, 0.0, 0.0, 0.0, 0.0, 0.0, 0.0, 0.0, 0.0, 0.0, 0.0, 0.0, 0.0, 0.0, 0.0, 0.0, 0.0, 0.0, 0.0, 0.0, 0.0, 0.0, 0.0, 0.0, 0.0, 0.0, 0.0, 0.0, 0.0, 0.0, 0.0, 0.0, 0.0, 0.0, 0.0, 0.0, 0.0, 0.0, 0.0, 0.0, 0.0, 0.0, 0.0, 0.0, 0.0, 0.0, 0.0, 0.0, 0.0, 0.0, 0.0, 0.0, 0.0, 0.0, 0.0, 0.0, 0.0, 0.0, 0.0, 0.0, 0.0, 0.0, 0.0, 0.0, 0.0, 0.0, 0.0, 0.0, 0.0, 0.0, 0.0, 0.0, 0.0, 0.0, 0.0, 0.0, 0.0, 0.0, 0.0]","[0, 0, 0, 0, 0, 0, 0, 0, 0, 0, 0, 0, 0, 0, 0, 0, 0, 0, 0, 0, 0, 0, 0, 0, 0, 0, 0, 0, 0, 0, 0, 0, 0, 0, 0, 0, 0, 0, 0, 0, 0, 0, 0, 0, 0, 0, 0, 0, 0, 0, 0, 0, 0, 0, 0, 0, 0, 0, 0, 0, 0, 0, 0, 0, 0, 0, 0, 0, 0, 0, 0, 0, 0, 0, 0, 0, 0, 0, 0]","[0, 0, 0, 0, 0, 0, 0, 0, 0, 0, 0, 0, 0, 0, 0, 0, 0, 0, 0, 0, 0, 0, 0, 0, 0, 0, 0, 0, 0, 0, 0, 0, 0, 0, 0, 0, 0, 0, 0, 0, 0, 0, 0, 0, 0, 0, 0, 0, 0, 0, 0, 0, 0, 0, 0, 0, 0, 0, 0, 0, 0, 0, 0, 0, 0, 0, 0, 0, 0, 0, 0, 0, 0, 0, 0, 0, 0, 0, 0]","[0, 0, 0, 0, 0, 0, 0, 0, 0, 0, 0, 0, 0, 0, 0, 0, 0, 0, 0, 0, 0, 0, 0, 0, 0, 0, 0, 0, 0, 0, 0, 0, 0, 0, 0, 0, 0, 0, 0, 0, 0, 0, 0, 0, 0, 0, 0, 0, 0, 0, 0, 0, 0, 0, 0, 0, 0, 0, 0, 0, 0, 0, 0, 0, 0, 0, 0, 0, 0, 0, 0, 0, 0, 0, 0, 0, 0, 0, 0]","[0.0005185999907553196, 0.018709999989368953, 0.038792699997429736, 0.04976489998807665, 0.06561900000087917, 0.08185889999731444, 0.09853479999583215, 0.11512749998655636, 0.13261960000090767, 0.14853029999358114, 0.16578429999935906, 0.18209259999275673, 0.20031589998689014, 0.21733279999170918, 0.2323510999995051, 0.2485885999922175, 0.2643448999879183, 0.2820620999991661, 0.29854340000019874, 0.3155708999984199, 0.33150089999253396, 0.34753049998835195, 0.36431059999449644, 0.38171329999750014, 0.3986251999886008, 0.41462899999169167, 0.43191129999468103, 0.44770359998801723, 0.4648603999958141, 0.48243279999587685, 0.49833159999980126, 0.5152625999908196, 0.5315619999892078, 0.5481942999904277, 0.5651093999913428, 0.5811129999929108, 0.5979455999913625, 0.6158540999895195, 0.6309135999908904, 0.6447245999879669, 0.6642053999967175, 0.6809624999877997, 0.6982794999930775, 0.7144826000003377, 0.7313322999980301, 0.747903999988921, 0.7642334999982268, 0.7810428999946453, 0.7978737999947043, 0.8151302999904146, 0.8307776000001468, 0.8482184999884339, 0.8648118999990402, 0.8810670999955619, 0.8977910999965388, 0.9137923999951454, 0.9314904999919236, 0.9474697999976343, 0.9654223999968963, 0.9811294999963138, 0.9970037999883061, 1.0145814999996219, 1.0315944999892963, 1.0475872999959392, 1.0641215999930864, 1.0811609999946086, 1.097507799990126, 1.1149815999960992, 1.1294321999885142, 1.144216000000597, 1.163350699993316, 1.1809212999942247, 1.1975428000005195, 1.2144253999867942, 1.2308151999895927, 1.2468009000003804, 1.2642525999981444, 1.280924499995308, 1.2973266999906627]",0.005624860001262277,1.3201232600113144,34.25153449999925,None,34.25153449999925,None,34.25153449999925,None,34.25153449999925,34.753326100006234,34.25153449999925,None,,,,,,,,,,,,,,,,,,,,,,,,,,,,,,,,,,,,,,,,,,,,,,,,,,,,,,,,,,,,,0,001,2020_Oct_14_1335,vm_20xx,2020.2.4,59.62542118144081,
0.3,-0.3,0,,,,,0,2,2,15,,,,,,,,,,,,,,,,,,,,,35.26809310000681,None,35.26809310000681,None,36.69692689999647,None,35.26809310000681,None,"[0.0, 0.0, 0.0, 0.0, 0.0, 0.0, 0.0, 0.0, 0.0, 0.0, 0.0, 0.0, 0.0, 0.0, 0.0, 0.0, 0.0, 0.0, 0.0, 0.0, 0.0, 0.0, 0.0, 0.0, 0.0, 0.0, 0.0, 0.0, 0.0, 0.0, 0.0, 0.0, 0.0, 0.0, 0.0, 0.0, 0.0, 0.0, 0.0, 0.0, 0.0, 0.0, 0.0, 0.0, 0.0, 0.0, 0.0, 0.0, 0.0, 0.0, 0.0, 0.0, 0.0, 0.0, 0.0, 0.0, 0.0, 0.0, 0.0, 0.0, 0.0, 0.0, 0.0, 0.0, 0.0, 0.0, 0.0, 0.0, 0.0, 0.0, 0.0, 0.0]","[0.0, 0.0, 0.0, 0.0, 0.0, 0.0, 0.0, 0.0, 0.0, 0.0, 0.0, 0.0, 0.0, 0.0, 0.0, 0.0, 0.0, 0.0, 0.0, 0.0, 0.0, 0.0, 0.0, 0.0, 0.0, 0.0, 0.0, 0.0, 0.0, 0.0, 0.0, 0.0, 0.0, 0.0, 0.0, 0.0, 0.0, 0.0, 0.0, 0.0, 0.0, 0.0, 0.0, 0.0, 0.0, 0.0, 0.0, 0.0, 0.0, 0.0, 0.0, 0.0, 0.0, 0.0, 0.0, 0.0, 0.0, 0.0, 0.0, 0.0, 0.0, 0.0, 0.0, 0.0, 0.0, 0.0, 0.0, 0.0, 0.0, 0.0, 0.0, 0.0]","[0, 0, 0, 0, 0, 0, 0, 0, 0, 0, 0, 0, 0, 0, 0, 0, 0, 0, 0, 0, 0, 0, 0, 0, 0, 0, 0, 0, 0, 0, 0, 0, 0, 0, 0, 0, 0, 0, 0, 0, 0, 0, 0, 0, 0, 0, 0, 0, 0, 0, 0, 0, 0, 0, 0, 0, 0, 0, 0, 0, 0, 0, 0, 0, 0, 0, 0, 0, 0, 0, 0, 0]","[0, 0, 0, 0, 0, 0, 0, 0, 0, 0, 0, 0, 0, 0, 0, 0, 0, 0, 0, 0, 0, 0, 0, 0, 0, 0, 0, 0, 0, 0, 0, 0, 0, 0, 0, 0, 0, 0, 0, 0, 0, 0, 0, 0, 0, 0, 0, 0, 0, 0, 0, 0, 0, 0, 0, 0, 0, 0, 0, 0, 0, 0, 0, 0, 0, 0, 0, 0, 0, 0, 0, 0]","[0, 0, 0, 0, 0, 0, 0, 0, 0, 0, 0, 0, 0, 0, 0, 0, 0, 0, 0, 0, 0, 0, 0, 0, 0, 0, 0, 0, 0, 0, 0, 0, 0, 0, 0, 0, 0, 0, 0, 0, 0, 0, 0, 0, 0, 0, 0, 0, 0, 0, 0, 0, 0, 0, 0, 0, 0, 0, 0, 0, 0, 0, 0, 0, 0, 0, 0, 0, 0, 0, 0, 0]","[0.0006400000129360706, 0.014403600012883544, 0.06323460000567138, 0.09129340000799857, 0.10714790000929497, 0.12475570000242442, 0.13861740000720602, 0.15480090001074132, 0.17146450000291225, 0.18627910000213888, 0.22548410001036245, 0.24256130000867415, 0.2585307000117609, 0.27712610000162385, 0.2942333000100916, 0.3131205000099726, 0.34079110001039226, 0.3618840999988606, 0.3792589000076987, 0.39717880000534933, 0.4157351000030758, 0.4416215000092052, 0.46092730000964366, 0.47896480000054, 0.4968603000015719, 0.5146674999996321, 0.5306436000100803, 0.5480622000031872, 0.5743247000064002, 0.5981135000038194, 0.6168211000040174, 0.6342972999991616, 0.6489727000007406, 0.6742650000087451, 0.6937472999998135, 0.7129790000035428, 0.7297966000041924, 0.7471674000116764, 0.7637558999995235, 0.783783000006224, 0.7989406000124291, 0.8230324000032851, 0.8415627000067616, 0.8603283000120427, 0.880520400009118, 0.8970922000007704, 0.913394100003643, 0.9296123000094667, 0.9468683000013698, 0.9638788000011118, 0.9810725999996066, 1.0063300000037998, 1.0274680000002263, 1.0443129000050249, 1.0621449000027496, 1.0792397000041092, 1.0957351000106428, 1.112668300003861, 1.1402888000011444, 1.1626873000059277, 1.1802489000110654, 1.1968712000089, 1.2223499000101583, 1.2428802000067662, 1.2626922000054037, 1.2827225000073668, 1.2978791000059573, 1.324288500007242, 1.345414499999606, 1.3631017000006977, 1.380437300002086, 1.3963002000091365]",0.006946080000489019,1.430102580008679,37.843236600005184,None,37.843236600005184,None,37.843236600005184,None,37.843236600005184,38.34862260000955,37.843236600005184,None,,,,,,,,,,,,,,,,,,,,,,,,,,,,,,,,,,,,,,,,,,,,,,,,,,,,,,,,,,,,,0,001,2020_Oct_14_1335,vm_20xx,2020.2.4,59.62542118144081,
0.3,0.3,0,,,,,0,3,3,4,,,,,,,,,,,,,,,,,,,,,38.83205710000766,None,38.83205710000766,None,40.209306400007335,None,38.83205710000766,None,"[0.0, 0.0, 0.0, 0.0, 0.0, 0.0, 0.0, 0.0, 0.0, 0.0, 0.0, 0.0, 0.0, 0.0, 0.0, 0.0, 0.0, 0.0, 0.0, 0.0, 0.0, 0.0, 0.0, 0.0, 0.0, 0.0, 0.0, 0.0, 0.0, 0.0, 0.0, 0.0, 0.0, 0.0, 0.0, 0.0, 0.0, 0.0, 0.0, 0.0, 0.0, 0.0, 0.0, 0.0, 0.0, 0.0, 0.0, 0.0, 0.0, 0.0, 0.0, 0.0, 0.0, 0.0, 0.0, 0.0, 0.0, 0.0, 0.0, 0.0, 0.0, 0.0, 0.0, 0.0, 0.0, 0.0, 0.0, 0.0, 0.0, 0.0, 0.0, 0.0, 0.0, 0.0, 0.0]","[0.0, 0.0, 0.0, 0.0, 0.0, 0.0, 0.0, 0.0, 0.0, 0.0, 0.0, 0.0, 0.0, 0.0, 0.0, 0.0, 0.0, 0.0, 0.0, 0.0, 0.0, 0.0, 0.0, 0.0, 0.0, 0.0, 0.0, 0.0, 0.0, 0.0, 0.0, 0.0, 0.0, 0.0, 0.0, 0.0, 0.0, 0.0, 0.0, 0.0, 0.0, 0.0, 0.0, 0.0, 0.0, 0.0, 0.0, 0.0, 0.0, 0.0, 0.0, 0.0, 0.0, 0.0, 0.0, 0.0, 0.0, 0.0, 0.0, 0.0, 0.0, 0.0, 0.0, 0.0, 0.0, 0.0, 0.0, 0.0, 0.0, 0.0, 0.0, 0.0, 0.0, 0.0, 0.0]","[0, 0, 0, 0, 0, 0, 0, 0, 0, 0, 0, 0, 0, 0, 0, 0, 0, 0, 0, 0, 0, 0, 0, 0, 0, 0, 0, 0, 0, 0, 0, 0, 0, 0, 0, 0, 0, 0, 0, 0, 0, 0, 0, 0, 0, 0, 0, 0, 0, 0, 0, 0, 0, 0, 0, 0, 0, 0, 0, 0, 0, 0, 0, 0, 0, 0, 0, 0, 0, 0, 0, 0, 0, 0, 0]","[0, 0, 0, 0, 0, 0, 0, 0, 0, 0, 0, 0, 0, 0, 0, 0, 0, 0, 0, 0, 0, 0, 0, 0, 0, 0, 0, 0, 0, 0, 0, 0, 0, 0, 0, 0, 0, 0, 0, 0, 0, 0, 0, 0, 0, 0, 0, 0, 0, 0, 0, 0, 0, 0, 0, 0, 0, 0, 0, 0, 0, 0, 0, 0, 0, 0, 0, 0, 0, 0, 0, 0, 0, 0, 0]","[0, 0, 0, 0, 0, 0, 0, 0, 0, 0, 0, 0, 0, 0, 0, 0, 0, 0, 0, 0, 0, 0, 0, 0, 0, 0, 0, 0, 0, 0, 0, 0, 0, 0, 0, 0, 0, 0, 0, 0, 0, 0, 0, 0, 0, 0, 0, 0, 0, 0, 0, 0, 0, 0, 0, 0, 0, 0, 0, 0, 0, 0, 0, 0, 0, 0, 0, 0, 0, 0, 0, 0, 0, 0, 0]","[0.000370699999621138, 0.014394100013305433, 0.030611200010753237, 0.04813190001004841, 0.06431030000385363, 0.08119210001314059, 0.09873470000457019, 0.12460180000925902, 0.1463994000077946, 0.16531200001190882, 0.17967310000676662, 0.1991244000091683, 0.21399730000121053, 0.23204390000319108, 0.25081510000745766, 0.27354000000923406, 0.2875656000105664, 0.3122443000029307, 0.32948890000989195, 0.348156400010339, 0.3748541000095429, 0.39650520001305267, 0.4147955000080401, 0.4316685000085272, 0.4494963000033749, 0.4661532000027364, 0.4819541000033496, 0.5079580000019632, 0.5276757000101497, 0.5457817000133218, 0.5638766000047326, 0.5810838000033982, 0.5970253000123193, 0.6135691000090446, 0.6307273000129499, 0.6483224000112386, 0.664527500004624, 0.6811623000103282, 0.7071282000106294, 0.7272333000000799, 0.7455184999998892, 0.7635150000132853, 0.7905708000034792, 0.810932500011404, 0.829954100001487, 0.8474461000005249, 0.8665946000110125, 0.883563100011088, 0.9001361000118777, 0.9180892000003951, 0.941980000003241, 0.9619939000112936, 0.9804454000113765, 0.9978632999991532, 1.0246364000049653, 1.0451709000044502, 1.0633968000038294, 1.0809828000055859, 1.0976163000013912, 1.1143349000049056, 1.1410567999992054, 1.1633740000106627, 1.1823874000110663, 1.19906000001356, 1.2176938000047812, 1.2330277000000933, 1.258121900013066, 1.2750779000052717, 1.2915480000083335, 1.3082359000109136, 1.3246696999995038, 1.340706200004206, 1.3584004000003915, 1.3749893000058364, 1.3917058000079123]",0.010624779999488965,1.4196070800098823,41.01668260000588,None,41.01668260000588,None,41.01668260000588,None,41.01668260000588,41.52671440000995,41.01668260000588,None,,,,,,,,,,,,,,,,,,,,,,,,,,,,,,,,,,,,,,,,,,,,,,,,,,,,,,,,,,,,,0,001,2020_Oct_14_1335,vm_20xx,2020.2.4,59.62542118144081,
-0.3,0.3,0,,,,,0,4,4,13,,,,,,,,,,,,,,,,,,,,,42.012407000001986,None,42.012407000001986,None,42.64209049999772,None,42.012407000001986,None,"[0.0, 0.0, 0.0, 0.0, 0.0, 0.0, 0.0, 0.0, 0.0, 0.0, 0.0, 0.0, 0.0, 0.0, 0.0, 0.0, 0.0, 0.0, 0.0, 0.0, 0.0, 0.0, 0.0, 0.0, 0.0, 0.0, 0.0, 0.0, 0.0, 0.0, 0.0, 0.0, 0.0]","[0.0, 0.0, 0.0, 0.0, 0.0, 0.0, 0.0, 0.0, 0.0, 0.0, 0.0, 0.0, 0.0, 0.0, 0.0, 0.0, 0.0, 0.0, 0.0, 0.0, 0.0, 0.0, 0.0, 0.0, 0.0, 0.0, 0.0, 0.0, 0.0, 0.0, 0.0, 0.0, 0.0]","[0, 0, 0, 0, 0, 0, 0, 0, 0, 0, 0, 0, 0, 0, 0, 0, 0, 0, 0, 0, 0, 0, 0, 0, 0, 0, 0, 0, 0, 0, 0, 0, 0]","[0, 0, 0, 0, 0, 0, 0, 0, 0, 0, 0, 0, 0, 0, 0, 0, 0, 0, 0, 0, 0, 0, 0, 0, 0, 0, 0, 0, 0, 0, 0, 0, 0]","[0, 0, 0, 0, 0, 0, 0, 0, 0, 0, 0, 0, 0, 0, 0, 0, 0, 0, 0, 0, 0, 0, 0, 0, 0, 0, 0, 0, 0, 0, 0, 0, 0]","[0.0006155000010039657, 0.012744699997710995, 0.03968180000083521, 0.06049889999849256, 0.07806100000743754, 0.09621499999775551, 0.11320170000544749, 0.13051950000226498, 0.14657520000764634, 0.17483180000272114, 0.1945393000059994, 0.21294990000023972, 0.22977750000427477, 0.24656630000390578, 0.27418829999805894, 0.29402240000490565, 0.31332680000923574, 0.33003570001164917, 0.3467579999996815, 0.36439500001142733, 0.38106020000122953, 0.40603769999870565, 0.4261407000012696, 0.44486220000544563, 0.46303710000938736, 0.481065200001467, 0.4965898000082234, 0.522578700009035, 0.5453334000048926, 0.5626087999989977, 0.5819661999994423, 0.5978031999984523, 0.6246620000019902]",0.00940388000162784,0.6522652799903881,43.760445799998706,None,43.760445799998706,None,43.760445799998706,None,43.760445799998706,44.261670200008666,43.760445799998706,None,,,,,,,,,,,,,,,,,,,,,,,,,,,,,,,,,,,,,,,,,,,,,,,,,,,,,,,,,,,,,0,001,2020_Oct_14_1335,vm_20xx,2020.2.4,59.62542118144081,
-0.3,0.3,0,,,,,0,5,5,1,,,,,,,,,,,,,,,,,,,,,44.763133400003426,None,44.763133400003426,None,45.54272040000069,None,44.763133400003426,None,"[0.0, 0.0, 0.0, 0.0, 0.0, 0.0, 0.0, 0.0, 0.0, 0.0, 0.0, 0.0, 0.0, 0.0, 0.0, 0.0, 0.0, 0.0, 0.0, 0.0, 0.0, 0.0, 0.0, 0.0, 0.0, 0.0, 0.0, 0.0, 0.0, 0.0, 0.0, 0.0, 0.0, 0.0, 0.0, 0.0, 0.0, 0.0, 0.0, 0.0, 0.0]","[0.0, 0.0, 0.0, 0.0, 0.0, 0.0, 0.0, 0.0, 0.0, 0.0, 0.0, 0.0, 0.0, 0.0, 0.0, 0.0, 0.0, 0.0, 0.0, 0.0, 0.0, 0.0, 0.0, 0.0, 0.0, 0.0, 0.0, 0.0, 0.0, 0.0, 0.0, 0.0, 0.0, 0.0, 0.0, 0.0, 0.0, 0.0, 0.0, 0.0, 0.0]","[0, 0, 0, 0, 0, 0, 0, 0, 0, 0, 0, 0, 0, 0, 0, 0, 0, 0, 0, 0, 0, 0, 0, 0, 0, 0, 0, 0, 0, 0, 0, 0, 0, 0, 0, 0, 0, 0, 0, 0, 0]","[0, 0, 0, 0, 0, 0, 0, 0, 0, 0, 0, 0, 0, 0, 0, 0, 0, 0, 0, 0, 0, 0, 0, 0, 0, 0, 0, 0, 0, 0, 0, 0, 0, 0, 0, 0, 0, 0, 0, 0, 0]","[0, 0, 0, 0, 0, 0, 0, 0, 0, 0, 0, 0, 0, 0, 0, 0, 0, 0, 0, 0, 0, 0, 0, 0, 0, 0, 0, 0, 0, 0, 0, 0, 0, 0, 0, 0, 0, 0, 0, 0, 0]","[0.0012371999910101295, 0.015776000000187196, 0.04038219999347348, 0.05873530000098981, 0.0772883999889018, 0.09454140000161715, 0.11209509999025613, 0.12857069999154191, 0.1559172999986913, 0.1758923000015784, 0.1936775999929523, 0.21158940000168514, 0.22980779998761136, 0.24486690000048839, 0.27123059998848476, 0.2906617999979062, 0.30848189999233, 0.3279039999906672, 0.35469319998810533, 0.3753961999900639, 0.3952290999877732, 0.411494899992249, 0.4382997999928193, 0.458496399995056, 0.4784815999882994, 0.4942960999906063, 0.5114192999899387, 0.5288519999885466, 0.5545041000004858, 0.574669299996458, 0.5930780999915441, 0.6103551999985939, 0.6287212999886833, 0.6444599999958882, 0.6707766999898013, 0.6902868999895873, 0.7082655999984127, 0.7269538999971701, 0.7445722999982536, 0.7611785999906715, 0.7782953999994788]",0.008084080007392913,0.8019696800038218,46.49301679999917,None,46.49301679999917,None,46.49301679999917,None,46.49301679999917,46.992057399998885,46.49301679999917,None,,,,,,,,,,,,,,,,,,,,,,,,,,,,,,,,,,,,,,,,,,,,,,,,,,,,,,,,,,,,,0,001,2020_Oct_14_1335,vm_20xx,2020.2.4,59.62542118144081,
0.3,-0.3,0,,,,,0,6,6,11,,,,,,,,,,,,,,,,,,,,,47.483714100002544,None,47.483714100002544,None,48.13386339999852,None,47.483714100002544,None,"[0.0, 0.0, 0.0, 0.0, 0.0, 0.0, 0.0, 0.0, 0.0, 0.0, 0.0, 0.0, 0.0, 0.0, 0.0, 0.0, 0.0, 0.0, 0.0, 0.0, 0.0, 0.0, 0.0, 0.0, 0.0, 0.0, 0.0, 0.0, 0.0, 0.0, 0.0, 0.0, 0.0, 0.0]","[0.0, 0.0, 0.0, 0.0, 0.0, 0.0, 0.0, 0.0, 0.0, 0.0, 0.0, 0.0, 0.0, 0.0, 0.0, 0.0, 0.0, 0.0, 0.0, 0.0, 0.0, 0.0, 0.0, 0.0, 0.0, 0.0, 0.0, 0.0, 0.0, 0.0, 0.0, 0.0, 0.0, 0.0]","[0, 0, 0, 0, 0, 0, 0, 0, 0, 0, 0, 0, 0, 0, 0, 0, 0, 0, 0, 0, 0, 0, 0, 0, 0, 0, 0, 0, 0, 0, 0, 0, 0, 0]","[0, 0, 0, 0, 0, 0, 0, 0, 0, 0, 0, 0, 0, 0, 0, 0, 0, 0, 0, 0, 0, 0, 0, 0, 0, 0, 0, 0, 0, 0, 0, 0, 0, 0]","[0, 0, 0, 0, 0, 0, 0, 0, 0, 0, 0, 0, 0, 0, 0, 0, 0, 0, 0, 0, 0, 0, 0, 0, 0, 0, 0, 0, 0, 0, 0, 0, 0, 0]","[0.0006068999937269837, 0.016744699998525903, 0.03708589999587275, 0.05561130000569392, 0.07295800000429153, 0.09016130000236444, 0.10776260000420734, 0.13402769999811426, 0.15356249999604188, 0.17321569999330677, 0.1906059000029927, 0.2162199000013061, 0.23782320000464097, 0.25559260000591166, 0.27378079999471083, 0.28967840000404976, 0.3163377000018954, 0.3379430000059074, 0.35638830000243615, 0.37345519999507815, 0.40040589999989606, 0.4214094000053592, 0.4396831000049133, 0.45618670000112616, 0.4735159999981988, 0.48981620000267867, 0.5095006000046851, 0.5243353999976534, 0.5496111999964342, 0.5701111999951536, 0.5876554999995278, 0.6054910999955609, 0.6242367999948328, 0.6403073999972548]",0.006187879975186661,0.6732280799769796,49.189473400008865,None,49.189473400008865,None,49.189473400008865,None,49.189473400008865,49.70280110000749,49.189473400008865,None,,,,,,,,,,,,,,,,,,,,,,,,,,,,,,,,,,,,,,,,,,,,,,,,,,,,,,,,,,,,,0,001,2020_Oct_14_1335,vm_20xx,2020.2.4,59.62542118144081,
-0.3,0.3,0,,,,,0,7,7,9,,,,,,,,,,,,,,,,,,,,,50.20458210000652,None,50.20458210000652,None,50.98823370000173,None,50.20458210000652,None,"[0.0, 0.0, 0.0, 0.0, 0.0, 0.0, 0.0, 0.0, 0.0, 0.0, 0.0, 0.0, 0.0, 0.0, 0.0, 0.0, 0.0, 0.0, 0.0, 0.0, 0.0, 0.0, 0.0, 0.0, 0.0, 0.0, 0.0, 0.0, 0.0, 0.0, 0.0, 0.0, 0.0, 0.0, 0.0, 0.0, 0.0, 0.0, 0.0, 0.0, 0.0, 0.0, 0.0, 0.0, 0.0, 0.0, 0.0, 0.0]","[0.0, 0.0, 0.0, 0.0, 0.0, 0.0, 0.0, 0.0, 0.0, 0.0, 0.0, 0.0, 0.0, 0.0, 0.0, 0.0, 0.0, 0.0, 0.0, 0.0, 0.0, 0.0, 0.0, 0.0, 0.0, 0.0, 0.0, 0.0, 0.0, 0.0, 0.0, 0.0, 0.0, 0.0, 0.0, 0.0, 0.0, 0.0, 0.0, 0.0, 0.0, 0.0, 0.0, 0.0, 0.0, 0.0, 0.0, 0.0]","[0, 0, 0, 0, 0, 0, 0, 0, 0, 0, 0, 0, 0, 0, 0, 0, 0, 0, 0, 0, 0, 0, 0, 0, 0, 0, 0, 0, 0, 0, 0, 0, 0, 0, 0, 0, 0, 0, 0, 0, 0, 0, 0, 0, 0, 0, 0, 0]","[0, 0, 0, 0, 0, 0, 0, 0, 0, 0, 0, 0, 0, 0, 0, 0, 0, 0, 0, 0, 0, 0, 0, 0, 0, 0, 0, 0, 0, 0, 0, 0, 0, 0, 0, 0, 0, 0, 0, 0, 0, 0, 0, 0, 0, 0, 0, 0]","[0, 0, 0, 0, 0, 0, 0, 0, 0, 0, 0, 0, 0, 0, 0, 0, 0, 0, 0, 0, 0, 0, 0, 0, 0, 0, 0, 0, 0, 0, 0, 0, 0, 0, 0, 0, 0, 0, 0, 0, 0, 0, 0, 0, 0, 0, 0, 0]","[0.0003226999979233369, 0.015885200002230704, 0.03172159999667201, 0.048076399994897656, 0.06496550000156276, 0.08248009999806527, 0.0983494999964023, 0.11453799999435432, 0.1309908999974141, 0.14710770000237972, 0.16357020000577904, 0.1794242000032682, 0.19550210000306834, 0.21365550000336953, 0.2298053999984404, 0.24671619999571703, 0.26380080000672024, 0.2796037000080105, 0.29618930000287946, 0.31278010000823997, 0.3296063000016147, 0.3455759000062244, 0.36180500000773463, 0.37835810000251513, 0.3952133999991929, 0.4119901999947615, 0.42784129999927245, 0.444263299999875, 0.4616731999994954, 0.4787579999974696, 0.4948090999969281, 0.5109788999980083, 0.5281170999951428, 0.5444231000001309, 0.5617819000035524, 0.5785665000003064, 0.5946956999978283, 0.611620399999083, 0.6284219999943161, 0.6452411000063876, 0.6610638999991352, 0.6769704000034835, 0.6940822000033222, 0.7106179999973392, 0.7270475999976043, 0.7433397999993758, 0.7614787000056822, 0.7807934000011301]",0.010750579996965826,0.810350979983923,52.00210720000905,None,52.00210720000905,None,52.00210720000905,None,52.00210720000905,52.50414099999762,52.00210720000905,None,,,,,,,,,,,,,,,,,,,,,,,,,,,,,,,,,,,,,,,,,,,,,,,,,,,,,,,,,,,,,0,001,2020_Oct_14_1335,vm_20xx,2020.2.4,59.62542118144081,
-0.3,0.3,0,,,,,0,8,8,5,,,,,,,,,,,,,,,,,,,,,53.011559699996724,None,53.011559699996724,None,54.298505300001125,None,53.011559699996724,None,"[0.0, 0.0, 0.0, 0.0, 0.0, 0.0, 0.0, 0.0, 0.0, 0.0, 0.0, 0.0, 0.0, 0.0, 0.0, 0.0, 0.0, 0.0, 0.0, 0.0, 0.0, 0.0, 0.0, 0.0, 0.0, 0.0, 0.0, 0.0, 0.0, 0.0, 0.0, 0.0, 0.0, 0.0, 0.0, 0.0, 0.0, 0.0, 0.0, 0.0, 0.0, 0.0, 0.0, 0.0, 0.0, 0.0, 0.0, 0.0, 0.0, 0.0, 0.0, 0.0, 0.0, 0.0, 0.0, 0.0, 0.0, 0.0, 0.0, 0.0, 0.0, 0.0, 0.0, 0.0, 0.0, 0.0, 0.0, 0.0]","[0.0, 0.0, 0.0, 0.0, 0.0, 0.0, 0.0, 0.0, 0.0, 0.0, 0.0, 0.0, 0.0, 0.0, 0.0, 0.0, 0.0, 0.0, 0.0, 0.0, 0.0, 0.0, 0.0, 0.0, 0.0, 0.0, 0.0, 0.0, 0.0, 0.0, 0.0, 0.0, 0.0, 0.0, 0.0, 0.0, 0.0, 0.0, 0.0, 0.0, 0.0, 0.0, 0.0, 0.0, 0.0, 0.0, 0.0, 0.0, 0.0, 0.0, 0.0, 0.0, 0.0, 0.0, 0.0, 0.0, 0.0, 0.0, 0.0, 0.0, 0.0, 0.0, 0.0, 0.0, 0.0, 0.0, 0.0, 0.0]","[0, 0, 0, 0, 0, 0, 0, 0, 0, 0, 0, 0, 0, 0, 0, 0, 0, 0, 0, 0, 0, 0, 0, 0, 0, 0, 0, 0, 0, 0, 0, 0, 0, 0, 0, 0, 0, 0, 0, 0, 0, 0, 0, 0, 0, 0, 0, 0, 0, 0, 0, 0, 0, 0, 0, 0, 0, 0, 0, 0, 0, 0, 0, 0, 0, 0, 0, 0]","[0, 0, 0, 0, 0, 0, 0, 0, 0, 0, 0, 0, 0, 0, 0, 0, 0, 0, 0, 0, 0, 0, 0, 0, 0, 0, 0, 0, 0, 0, 0, 0, 0, 0, 0, 0, 0, 0, 0, 0, 0, 0, 0, 0, 0, 0, 0, 0, 0, 0, 0, 0, 0, 0, 0, 0, 0, 0, 0, 0, 0, 0, 0, 0, 0, 0, 0, 0]","[0, 0, 0, 0, 0, 0, 0, 0, 0, 0, 0, 0, 0, 0, 0, 0, 0, 0, 0, 0, 0, 0, 0, 0, 0, 0, 0, 0, 0, 0, 0, 0, 0, 0, 0, 0, 0, 0, 0, 0, 0, 0, 0, 0, 0, 0, 0, 0, 0, 0, 0, 0, 0, 0, 0, 0, 0, 0, 0, 0, 0, 0, 0, 0, 0, 0, 0, 0]","[0.0006055999983800575, 0.016537300005438738, 0.03694430000905413, 0.05597210000269115, 0.0734431000018958, 0.08836040001187939, 0.10410570001113228, 0.12030780001077801, 0.1373580000072252, 0.15430880000349134, 0.17233739999937825, 0.1972643000044627, 0.21666070001083426, 0.2335163000097964, 0.25235670000256505, 0.27004760000272654, 0.28968910001276527, 0.31757880000805017, 0.3384906999999657, 0.35777870001038536, 0.37293890000728425, 0.39898870000615716, 0.41885080000793096, 0.43800049999845214, 0.4570753000007244, 0.47468910001043696, 0.5011423000105424, 0.5214691000001039, 0.5391461000108393, 0.5556701000023168, 0.5829185000038706, 0.6030802000022959, 0.6212404000107199, 0.6406382999994094, 0.6553956999996444, 0.672059900010936, 0.6898063000116963, 0.7154455999989295, 0.7355634999985341, 0.7538984999991953, 0.7729117999988375, 0.7889126000081887, 0.8160254000104032, 0.8362817000015639, 0.8536471000115853, 0.8709679000021424, 0.8885245000128634, 0.9064841000072192, 0.922322800004622, 0.9499158000107855, 0.9682683999999426, 0.9878131000004942, 1.0064158000022871, 1.0223274000018137, 1.0385750999994343, 1.0568069000000833, 1.073199200007366, 1.099036800005706, 1.1195047000073828, 1.1367914000002202, 1.15418930001033, 1.1715942000009818, 1.1885452999995323, 1.2061747000116156, 1.2226922000118066, 1.2394190000050003, 1.2561526000063168, 1.282108600003994]",0.005935279987170361,1.3086833799898159,55.149501400010195,None,55.149501400010195,None,55.149501400010195,None,55.149501400010195,55.65066769999976,55.149501400010195,None,,,,,,,,,,,,,,,,,,,,,,,,,,,,,,,,,,,,,,,,,,,,,,,,,,,,,,,,,,,,,0,001,2020_Oct_14_1335,vm_20xx,2020.2.4,59.62542118144081,
0.3,0.3,0,,,,,0,9,9,12,,,,,,,,,,,,,,,,,,,,,56.14589330001036,None,56.14589330001036,None,57.41383320000023,None,56.14589330001036,None,"[0.0, 0.0, 0.0, 0.0, 0.0, 0.0, 0.0, 0.0, 0.0, 0.0, 0.0, 0.0, 0.0, 0.0, 0.0, 0.0, 0.0, 0.0, 0.0, 0.0, 0.0, 0.0, 0.0, 0.0, 0.0, 0.0, 0.0, 0.0, 0.0, 0.0, 0.0, 0.0, 0.0, 0.0, 0.0, 0.0, 0.0, 0.0, 0.0, 0.0, 0.0, 0.0, 0.0, 0.0, 0.0, 0.0, 0.0, 0.0, 0.0, 0.0, 0.0, 0.0, 0.0, 0.0, 0.0, 0.0, 0.0, 0.0, 0.0, 0.0, 0.0, 0.0, 0.0, 0.0, 0.0, 0.0, 0.0, 0.0, 0.0, 0.0, 0.0]","[0.0, 0.0, 0.0, 0.0, 0.0, 0.0, 0.0, 0.0, 0.0, 0.0, 0.0, 0.0, 0.0, 0.0, 0.0, 0.0, 0.0, 0.0, 0.0, 0.0, 0.0, 0.0, 0.0, 0.0, 0.0, 0.0, 0.0, 0.0, 0.0, 0.0, 0.0, 0.0, 0.0, 0.0, 0.0, 0.0, 0.0, 0.0, 0.0, 0.0, 0.0, 0.0, 0.0, 0.0, 0.0, 0.0, 0.0, 0.0, 0.0, 0.0, 0.0, 0.0, 0.0, 0.0, 0.0, 0.0, 0.0, 0.0, 0.0, 0.0, 0.0, 0.0, 0.0, 0.0, 0.0, 0.0, 0.0, 0.0, 0.0, 0.0, 0.0]","[0, 0, 0, 0, 0, 0, 0, 0, 0, 0, 0, 0, 0, 0, 0, 0, 0, 0, 0, 0, 0, 0, 0, 0, 0, 0, 0, 0, 0, 0, 0, 0, 0, 0, 0, 0, 0, 0, 0, 0, 0, 0, 0, 0, 0, 0, 0, 0, 0, 0, 0, 0, 0, 0, 0, 0, 0, 0, 0, 0, 0, 0, 0, 0, 0, 0, 0, 0, 0, 0, 0]","[0, 0, 0, 0, 0, 0, 0, 0, 0, 0, 0, 0, 0, 0, 0, 0, 0, 0, 0, 0, 0, 0, 0, 0, 0, 0, 0, 0, 0, 0, 0, 0, 0, 0, 0, 0, 0, 0, 0, 0, 0, 0, 0, 0, 0, 0, 0, 0, 0, 0, 0, 0, 0, 0, 0, 0, 0, 0, 0, 0, 0, 0, 0, 0, 0, 0, 0, 0, 0, 0, 0]","[0, 0, 0, 0, 0, 0, 0, 0, 0, 0, 0, 0, 0, 0, 0, 0, 0, 0, 0, 0, 0, 0, 0, 0, 0, 0, 0, 0, 0, 0, 0, 0, 0, 0, 0, 0, 0, 0, 0, 0, 0, 0, 0, 0, 0, 0, 0, 0, 0, 0, 0, 0, 0, 0, 0, 0, 0, 0, 0, 0, 0, 0, 0, 0, 0, 0, 0, 0, 0, 0, 0]","[0.0001674999948590994, 0.0156109999952605, 0.03132819999882486, 0.04607660000328906, 0.06281200000375975, 0.07932439999422058, 0.0992709999991348, 0.11653159999696072, 0.1332191999972565, 0.14937050000298768, 0.16662109999742825, 0.1833208000025479, 0.20016629999736324, 0.21821750000526663, 0.23542510000697803, 0.25270759999693837, 0.2670748999953503, 0.28581869999470655, 0.3026335000031395, 0.31652419999591075, 0.334455699994578, 0.3527721999998903, 0.3695847000053618, 0.3951128000044264, 0.4161083999933908, 0.43382849999761675, 0.45167969999602064, 0.4788371000031475, 0.4995866999961436, 0.5175409999937983, 0.5353945999959251, 0.5528938000061316, 0.5691334000002826, 0.596112200000789, 0.6160477999947034, 0.6334021999937249, 0.6510814000066603, 0.6792636000027414, 0.700419900007546, 0.7190286999975797, 0.7365586999949301, 0.7526137999957427, 0.7787855000060517, 0.79784529999597, 0.8176037999946857, 0.8374584999983199, 0.8539617000060389, 0.873126599995885, 0.8990703000017675, 0.9153072000044631, 0.9316440999973565, 0.9460466000018641, 0.962467999997898, 0.9786274999933084, 0.9965566000028048, 1.0166062000062084, 1.0334125999943353, 1.0513824999943608, 1.0665327000024263, 1.0831618999945931, 1.1005231000017375, 1.1182171999971615, 1.135643000001437, 1.153996199995163, 1.1727551999938441, 1.1956937000068137, 1.215431799995713, 1.233423199999379, 1.2522024000063539, 1.265886799999862, 1.2845776000031037]",0.012668779992964119,1.3150904799986165,58.335212899997714,None,58.335212899997714,None,58.335212899997714,None,58.335212899997714,58.84377050001058,58.335212899997714,None,,,,,,,,,,,,,,,,,,,,,,,,,,,,,,,,,,,,,,,,,,,,,,,,,,,,,,,,,,,,,0,001,2020_Oct_14_1335,vm_20xx,2020.2.4,59.62542118144081,
0.3,0.3,0,,,,,0,10,10,8,,,,,,,,,,,,,,,,,,,,,59.34601500000281,None,59.34601500000281,None,60.64518180000596,None,59.34601500000281,None,"[0.0, 0.0, 0.0, 0.0, 0.0, 0.0, 0.0, 0.0, 0.0, 0.0, 0.0, 0.0, 0.0, 0.0, 0.0, 0.0, 0.0, 0.0, 0.0, 0.0, 0.0, 0.0, 0.0, 0.0, 0.0, 0.0, 0.0, 0.0, 0.0, 0.0, 0.0, 0.0, 0.0, 0.0, 0.0, 0.0, 0.0, 0.0, 0.0, 0.0, 0.0, 0.0, 0.0, 0.0, 0.0, 0.0, 0.0, 0.0, 0.0, 0.0, 0.0, 0.0, 0.0, 0.0, 0.0, 0.0, 0.0, 0.0, 0.0, 0.0, 0.0, 0.0, 0.0, 0.0, 0.0, 0.0, 0.0, 0.0]","[0.0, 0.0, 0.0, 0.0, 0.0, 0.0, 0.0, 0.0, 0.0, 0.0, 0.0, 0.0, 0.0, 0.0, 0.0, 0.0, 0.0, 0.0, 0.0, 0.0, 0.0, 0.0, 0.0, 0.0, 0.0, 0.0, 0.0, 0.0, 0.0, 0.0, 0.0, 0.0, 0.0, 0.0, 0.0, 0.0, 0.0, 0.0, 0.0, 0.0, 0.0, 0.0, 0.0, 0.0, 0.0, 0.0, 0.0, 0.0, 0.0, 0.0, 0.0, 0.0, 0.0, 0.0, 0.0, 0.0, 0.0, 0.0, 0.0, 0.0, 0.0, 0.0, 0.0, 0.0, 0.0, 0.0, 0.0, 0.0]","[0, 0, 0, 0, 0, 0, 0, 0, 0, 0, 0, 0, 0, 0, 0, 0, 0, 0, 0, 0, 0, 0, 0, 0, 0, 0, 0, 0, 0, 0, 0, 0, 0, 0, 0, 0, 0, 0, 0, 0, 0, 0, 0, 0, 0, 0, 0, 0, 0, 0, 0, 0, 0, 0, 0, 0, 0, 0, 0, 0, 0, 0, 0, 0, 0, 0, 0, 0]","[0, 0, 0, 0, 0, 0, 0, 0, 0, 0, 0, 0, 0, 0, 0, 0, 0, 0, 0, 0, 0, 0, 0, 0, 0, 0, 0, 0, 0, 0, 0, 0, 0, 0, 0, 0, 0, 0, 0, 0, 0, 0, 0, 0, 0, 0, 0, 0, 0, 0, 0, 0, 0, 0, 0, 0, 0, 0, 0, 0, 0, 0, 0, 0, 0, 0, 0, 0]","[0, 0, 0, 0, 0, 0, 0, 0, 0, 0, 0, 0, 0, 0, 0, 0, 0, 0, 0, 0, 0, 0, 0, 0, 0, 0, 0, 0, 0, 0, 0, 0, 0, 0, 0, 0, 0, 0, 0, 0, 0, 0, 0, 0, 0, 0, 0, 0, 0, 0, 0, 0, 0, 0, 0, 0, 0, 0, 0, 0, 0, 0, 0, 0, 0, 0, 0, 0]","[0.00032839999767020345, 0.014201800004229881, 0.030774099999689497, 0.048107499998877756, 0.06472049999865703, 0.09050630001001991, 0.11167250000289641, 0.12969370000064373, 0.14775160000135656, 0.16468620000523515, 0.18229270000301767, 0.20033459999831393, 0.21574150001106318, 0.24139419999846723, 0.261779899999965, 0.2803967000072589, 0.29829659999813884, 0.3243327000091085, 0.3423291000071913, 0.3625583000102779, 0.381105699998443, 0.39873780000198167, 0.41618310000922065, 0.431905800011009, 0.4583896999974968, 0.4783404000045266, 0.4965672000107588, 0.5151533000025665, 0.532120500007295, 0.5485237000102643, 0.5652891000063391, 0.5814228000090225, 0.6076864000060596, 0.6280871000053594, 0.6463518000091426, 0.6645986000075936, 0.6822087000036845, 0.7078847000084352, 0.7286929999972926, 0.7484246000094572, 0.7652761000063037, 0.7815879999980098, 0.8077556000062032, 0.8278005000029225, 0.8466593000048306, 0.8647226000030059, 0.8816718000016408, 0.8990819000027841, 0.91483030001109, 0.9410121999972034, 0.9616986000037286, 0.9807449000072666, 0.9980442000087351, 1.0255387000070186, 1.0472442000027513, 1.0671939000021666, 1.0831559000071138, 1.1016548000043258, 1.1176399000105448, 1.1423006999975769, 1.1624254000053043, 1.1821886000107042, 1.195957100004307, 1.2157590999995591, 1.234968500008108, 1.2478698000049917, 1.2742618000047514, 1.294509500003187]",0.010160779987927526,1.3237602799927117,61.54376630000479,None,61.54376630000479,None,61.54376630000479,None,61.54376630000479,62.053630800000974,61.54376630000479,None,,,,,,,,,,,,,,,,,,,,,,,,,,,,,,,,,,,,,,,,,,,,,,,,,,,,,,,,,,,,,0,001,2020_Oct_14_1335,vm_20xx,2020.2.4,59.62542118144081,
0.3,-0.3,0,,,,,0,11,11,3,,,,,,,,,,,,,,,,,,,,,62.54402260000643,None,62.54402260000643,None,63.393309300008696,None,62.54402260000643,None,"[0.0, 0.0, 0.0, 0.0, 0.0, 0.0, 0.0, 0.0, 0.0, 0.0, 0.0, 0.0, 0.0, 0.0, 0.0, 0.0, 0.0, 0.0, 0.0, 0.0, 0.0, 0.0, 0.0, 0.0, 0.0, 0.0, 0.0, 0.0, 0.0, 0.0, 0.0, 0.0, 0.0, 0.0, 0.0, 0.0, 0.0, 0.0, 0.0, 0.0, 0.0, 0.0, 0.0, 0.0, 0.0]","[0.0, 0.0, 0.0, 0.0, 0.0, 0.0, 0.0, 0.0, 0.0, 0.0, 0.0, 0.0, 0.0, 0.0, 0.0, 0.0, 0.0, 0.0, 0.0, 0.0, 0.0, 0.0, 0.0, 0.0, 0.0, 0.0, 0.0, 0.0, 0.0, 0.0, 0.0, 0.0, 0.0, 0.0, 0.0, 0.0, 0.0, 0.0, 0.0, 0.0, 0.0, 0.0, 0.0, 0.0, 0.0]","[0, 0, 0, 0, 0, 0, 0, 0, 0, 0, 0, 0, 0, 0, 0, 0, 0, 0, 0, 0, 0, 0, 0, 0, 0, 0, 0, 0, 0, 0, 0, 0, 0, 0, 0, 0, 0, 0, 0, 0, 0, 0, 0, 0, 0]","[0, 0, 0, 0, 0, 0, 0, 0, 0, 0, 0, 0, 0, 0, 0, 0, 0, 0, 0, 0, 0, 0, 0, 0, 0, 0, 0, 0, 0, 0, 0, 0, 0, 0, 0, 0, 0, 0, 0, 0, 0, 0, 0, 0, 0]","[0, 0, 0, 0, 0, 0, 0, 0, 0, 0, 0, 0, 0, 0, 0, 0, 0, 0, 0, 0, 0, 0, 0, 0, 0, 0, 0, 0, 0, 0, 0, 0, 0, 0, 0, 0, 0, 0, 0, 0, 0, 0, 0, 0, 0]","[0.0006682999955955893, 0.01288629999908153, 0.030679200004669838, 0.04914430000644643, 0.06442640000022948, 0.0904990999988513, 0.10944080000626855, 0.12818300000799354, 0.1461570999963442, 0.15983400000550319, 0.17870279999624472, 0.1932039000093937, 0.2125434000045061, 0.2312863999977708, 0.25570200000947807, 0.2751247999985935, 0.29441220000444446, 0.3149062000011327, 0.3292461000091862, 0.3557968999957666, 0.37589379999553785, 0.3960949000029359, 0.41346350000821985, 0.42921909999859054, 0.45574970000598114, 0.4781057000072906, 0.4992711000086274, 0.516579900009674, 0.539722300003632, 0.5585744999989402, 0.5766437999991467, 0.5951009999989765, 0.6135941999964416, 0.6298380000080215, 0.653973299995414, 0.6708412000007229, 0.6908780000085244, 0.7098232999996981, 0.7280135000037262, 0.7465403999958653, 0.7615556999953697, 0.7892404000012903, 0.8072891000047093, 0.8257675000058953, 0.8449450000043726]",0.008974780008429661,0.871158980007749,64.90631109999958,None,64.90631109999958,None,64.90631109999958,None,64.90631109999958,65.42310450000514,64.90631109999958,None,,,,,,,,,,,,,,,,,,,,,,,,,,,,,,,,,,,,,,,,,,,,,,,,,,,,,,,,,,,,,0,001,2020_Oct_14_1335,vm_20xx,2020.2.4,59.62542118144081,
0.3,-0.3,0,,,,,0,12,12,7,,,,,,,,,,,,,,,,,,,,,65.89192400001048,None,65.89192400001048,None,67.12337100000877,None,65.89192400001048,None,"[0.0, 0.0, 0.0, 0.0, 0.0, 0.0, 0.0, 0.0, 0.0, 0.0, 0.0, 0.0, 0.0, 0.0, 0.0, 0.0, 0.0, 0.0, 0.0, 0.0, 0.0, 0.0, 0.0, 0.0, 0.0, 0.0, 0.0, 0.0, 0.0, 0.0, 0.0, 0.0, 0.0, 0.0, 0.0, 0.0, 0.0, 0.0, 0.0, 0.0, 0.0, 0.0, 0.0, 0.0, 0.0, 0.0, 0.0, 0.0, 0.0, 0.0, 0.0, 0.0, 0.0, 0.0, 0.0, 0.0, 0.0, 0.0, 0.0, 0.0, 0.0, 0.0, 0.0, 0.0]","[0.0, 0.0, 0.0, 0.0, 0.0, 0.0, 0.0, 0.0, 0.0, 0.0, 0.0, 0.0, 0.0, 0.0, 0.0, 0.0, 0.0, 0.0, 0.0, 0.0, 0.0, 0.0, 0.0, 0.0, 0.0, 0.0, 0.0, 0.0, 0.0, 0.0, 0.0, 0.0, 0.0, 0.0, 0.0, 0.0, 0.0, 0.0, 0.0, 0.0, 0.0, 0.0, 0.0, 0.0, 0.0, 0.0, 0.0, 0.0, 0.0, 0.0, 0.0, 0.0, 0.0, 0.0, 0.0, 0.0, 0.0, 0.0, 0.0, 0.0, 0.0, 0.0, 0.0, 0.0]","[0, 0, 0, 0, 0, 0, 0, 0, 0, 0, 0, 0, 0, 0, 0, 0, 0, 0, 0, 0, 0, 0, 0, 0, 0, 0, 0, 0, 0, 0, 0, 0, 0, 0, 0, 0, 0, 0, 0, 0, 0, 0, 0, 0, 0, 0, 0, 0, 0, 0, 0, 0, 0, 0, 0, 0, 0, 0, 0, 0, 0, 0, 0, 0]","[0, 0, 0, 0, 0, 0, 0, 0, 0, 0, 0, 0, 0, 0, 0, 0, 0, 0, 0, 0, 0, 0, 0, 0, 0, 0, 0, 0, 0, 0, 0, 0, 0, 0, 0, 0, 0, 0, 0, 0, 0, 0, 0, 0, 0, 0, 0, 0, 0, 0, 0, 0, 0, 0, 0, 0, 0, 0, 0, 0, 0, 0, 0, 0]","[0, 0, 0, 0, 0, 0, 0, 0, 0, 0, 0, 0, 0, 0, 0, 0, 0, 0, 0, 0, 0, 0, 0, 0, 0, 0, 0, 0, 0, 0, 0, 0, 0, 0, 0, 0, 0, 0, 0, 0, 0, 0, 0, 0, 0, 0, 0, 0, 0, 0, 0, 0, 0, 0, 0, 0, 0, 0, 0, 0, 0, 0, 0, 0]","[0.0012425000022631139, 0.01429370000550989, 0.04106600000523031, 0.06281950000266079, 0.08120620000408962, 0.09662450000178069, 0.12269380000361707, 0.14176299999235198, 0.16128549999848474, 0.17893150000600144, 0.20404729999427218, 0.2238039999938337, 0.2420406000019284, 0.260502599994652, 0.2783999999955995, 0.29574060000595637, 0.31190469999273773, 0.32738859999517445, 0.3537439999927301, 0.375429499996244, 0.3935555999923963, 0.41029689999413677, 0.42786749999504536, 0.4455454999988433, 0.461398300001747, 0.478288700003759, 0.5039870000036899, 0.5252241999987746, 0.5441601000056835, 0.5615991999948164, 0.5801083999976981, 0.5945512000034796, 0.6213384000002407, 0.6422782000008738, 0.6611246999964351, 0.676904599997215, 0.6960810000018682, 0.7114657000056468, 0.7377140000025975, 0.7578054000041448, 0.7781181000027573, 0.8040293999947608, 0.8239061000058427, 0.8424613999959547, 0.8600978000031319, 0.8778192000027047, 0.8947865999944042, 0.9206358999945223, 0.9403147999983048, 0.9584517000039341, 0.9766153999953531, 0.9950150999939069, 1.011787600000389, 1.0379584000038449, 1.0570378999982495, 1.0750269999989541, 1.093954299998586, 1.1204837999976007, 1.1411709999956656, 1.1594568000000436, 1.1776446000003489, 1.1936466000042856, 1.2107244999933755, 1.2283922000060556]",0.007816680008545518,1.2526598800177453,68.0709729000082,None,68.0709729000082,None,68.0709729000082,None,68.0709729000082,68.5821508000081,68.0709729000082,None,,,,,,,,,,,,,,,,,,,,,,,,,,,,,,,,,,,,,,,,,,,,,,,,,,,,,,,,,,,,,0,001,2020_Oct_14_1335,vm_20xx,2020.2.4,59.62542118144081,
0.3,0.3,0,,,,,0,13,13,0,,,,,,,,,,,,,,,,,,,,,69.0818011000083,None,69.0818011000083,None,70.28751510000438,None,69.0818011000083,None,"[0.0, 0.0, 0.0, 0.0, 0.0, 0.0, 0.0, 0.0, 0.0, 0.0, 0.0, 0.0, 0.0, 0.0, 0.0, 0.0, 0.0, 0.0, 0.0, 0.0, 0.0, 0.0, 0.0, 0.0, 0.0, 0.0, 0.0, 0.0, 0.0, 0.0, 0.0, 0.0, 0.0, 0.0, 0.0, 0.0, 0.0, 0.0, 0.0, 0.0, 0.0, 0.0, 0.0, 0.0, 0.0, 0.0, 0.0, 0.0, 0.0, 0.0, 0.0, 0.0, 0.0, 0.0, 0.0, 0.0, 0.0, 0.0, 0.0, 0.0, 0.0, 0.0, 0.0, 0.0]","[0.0, 0.0, 0.0, 0.0, 0.0, 0.0, 0.0, 0.0, 0.0, 0.0, 0.0, 0.0, 0.0, 0.0, 0.0, 0.0, 0.0, 0.0, 0.0, 0.0, 0.0, 0.0, 0.0, 0.0, 0.0, 0.0, 0.0, 0.0, 0.0, 0.0, 0.0, 0.0, 0.0, 0.0, 0.0, 0.0, 0.0, 0.0, 0.0, 0.0, 0.0, 0.0, 0.0, 0.0, 0.0, 0.0, 0.0, 0.0, 0.0, 0.0, 0.0, 0.0, 0.0, 0.0, 0.0, 0.0, 0.0, 0.0, 0.0, 0.0, 0.0, 0.0, 0.0, 0.0]","[0, 0, 0, 0, 0, 0, 0, 0, 0, 0, 0, 0, 0, 0, 0, 0, 0, 0, 0, 0, 0, 0, 0, 0, 0, 0, 0, 0, 0, 0, 0, 0, 0, 0, 0, 0, 0, 0, 0, 0, 0, 0, 0, 0, 0, 0, 0, 0, 0, 0, 0, 0, 0, 0, 0, 0, 0, 0, 0, 0, 0, 0, 0, 0]","[0, 0, 0, 0, 0, 0, 0, 0, 0, 0, 0, 0, 0, 0, 0, 0, 0, 0, 0, 0, 0, 0, 0, 0, 0, 0, 0, 0, 0, 0, 0, 0, 0, 0, 0, 0, 0, 0, 0, 0, 0, 0, 0, 0, 0, 0, 0, 0, 0, 0, 0, 0, 0, 0, 0, 0, 0, 0, 0, 0, 0, 0, 0, 0]","[0, 0, 0, 0, 0, 0, 0, 0, 0, 0, 0, 0, 0, 0, 0, 0, 0, 0, 0, 0, 0, 0, 0, 0, 0, 0, 0, 0, 0, 0, 0, 0, 0, 0, 0, 0, 0, 0, 0, 0, 0, 0, 0, 0, 0, 0, 0, 0, 0, 0, 0, 0, 0, 0, 0, 0, 0, 0, 0, 0, 0, 0, 0, 0]","[0.0004737999988719821, 0.01816359999065753, 0.037518699988140725, 0.05487849999917671, 0.07113259998732246, 0.08811139999306761, 0.10690889999386854, 0.12238779998733662, 0.14877379999961704, 0.16865300000063144, 0.186184799997136, 0.20446179999271408, 0.22140989999752492, 0.24028339999495074, 0.25670939999690745, 0.27242670000123326, 0.29877789999591187, 0.319056799999089, 0.3372749999980442, 0.355732199997874, 0.3716067999921506, 0.3990309999935562, 0.41797070000029635, 0.43620099998952355, 0.45457399998849723, 0.47288479999406263, 0.48873989999992773, 0.5151260999991791, 0.5351043999980902, 0.5530896999989636, 0.571470800001407, 0.5897260999918217, 0.6064201999979559, 0.6240985999902477, 0.6386118999944301, 0.6645508999936283, 0.6857281999982661, 0.70427689999633, 0.7214975999959279, 0.7387955999874976, 0.7552492999966489, 0.780926699997508, 0.8020179000013741, 0.8200972999911755, 0.8382891999935964, 0.8562587999913376, 0.8820807000010973, 0.9037663999915821, 0.9215395999926841, 0.9394609999872046, 0.9663104999926873, 0.985298799991142, 1.0038144999998622, 1.0229912999930093, 1.038184299992281, 1.065715699995053, 1.084144299995387, 1.103071599995019, 1.121254300000146, 1.1478959999949438, 1.1682048999937251, 1.1874397999927169, 1.2050777999975253, 1.2224768999876687]",0.006059079998522066,1.2443819799955236,72.05397670000093,None,72.05397670000093,None,72.05397670000093,None,72.05397670000093,72.56723420000344,72.05397670000093,None,,,,,,,,,,,,,,,,,,,,,,,,,,,,,,,,,,,,,,,,,,,,,,,,,,,,,,,,,,,,,0,001,2020_Oct_14_1335,vm_20xx,2020.2.4,59.62542118144081,
-0.3,-0.3,0,,,,,0,14,14,10,,,,,,,,,,,,,,,,,,,,,73.05400800000643,None,73.05400800000643,None,74.47934240000905,None,73.05400800000643,None,"[0.0, 0.0, 0.0, 0.0, 0.0, 0.0, 0.0, 0.0, 0.0, 0.0, 0.0, 0.0, 0.0, 0.0, 0.0, 0.0, 0.0, 0.0, 0.0, 0.0, 0.0, 0.0, 0.0, 0.0, 0.0, 0.0, 0.0, 0.0, 0.0, 0.0, 0.0, 0.0, 0.0, 0.0, 0.0, 0.0, 0.0, 0.0, 0.0, 0.0, 0.0, 0.0, 0.0, 0.0, 0.0, 0.0, 0.0, 0.0, 0.0, 0.0, 0.0, 0.0, 0.0, 0.0, 0.0, 0.0, 0.0, 0.0, 0.0, 0.0, 0.0, 0.0, 0.0, 0.0, 0.0, 0.0, 0.0, 0.0, 0.0, 0.0, 0.0, 0.0, 0.0, 0.0, 0.0]","[0.0, 0.0, 0.0, 0.0, 0.0, 0.0, 0.0, 0.0, 0.0, 0.0, 0.0, 0.0, 0.0, 0.0, 0.0, 0.0, 0.0, 0.0, 0.0, 0.0, 0.0, 0.0, 0.0, 0.0, 0.0, 0.0, 0.0, 0.0, 0.0, 0.0, 0.0, 0.0, 0.0, 0.0, 0.0, 0.0, 0.0, 0.0, 0.0, 0.0, 0.0, 0.0, 0.0, 0.0, 0.0, 0.0, 0.0, 0.0, 0.0, 0.0, 0.0, 0.0, 0.0, 0.0, 0.0, 0.0, 0.0, 0.0, 0.0, 0.0, 0.0, 0.0, 0.0, 0.0, 0.0, 0.0, 0.0, 0.0, 0.0, 0.0, 0.0, 0.0, 0.0, 0.0, 0.0]","[0, 0, 0, 0, 0, 0, 0, 0, 0, 0, 0, 0, 0, 0, 0, 0, 0, 0, 0, 0, 0, 0, 0, 0, 0, 0, 0, 0, 0, 0, 0, 0, 0, 0, 0, 0, 0, 0, 0, 0, 0, 0, 0, 0, 0, 0, 0, 0, 0, 0, 0, 0, 0, 0, 0, 0, 0, 0, 0, 0, 0, 0, 0, 0, 0, 0, 0, 0, 0, 0, 0, 0, 0, 0, 0]","[0, 0, 0, 0, 0, 0, 0, 0, 0, 0, 0, 0, 0, 0, 0, 0, 0, 0, 0, 0, 0, 0, 0, 0, 0, 0, 0, 0, 0, 0, 0, 0, 0, 0, 0, 0, 0, 0, 0, 0, 0, 0, 0, 0, 0, 0, 0, 0, 0, 0, 0, 0, 0, 0, 0, 0, 0, 0, 0, 0, 0, 0, 0, 0, 0, 0, 0, 0, 0, 0, 0, 0, 0, 0, 0]","[0, 0, 0, 0, 0, 0, 0, 0, 0, 0, 0, 0, 0, 0, 0, 0, 0, 0, 0, 0, 0, 0, 0, 0, 0, 0, 0, 0, 0, 0, 0, 0, 0, 0, 0, 0, 0, 0, 0, 0, 0, 0, 0, 0, 0, 0, 0, 0, 0, 0, 0, 0, 0, 0, 0, 0, 0, 0, 0, 0, 0, 0, 0, 0, 0, 0, 0, 0, 0, 0, 0, 0, 0, 0, 0]","[0.0010002999915741384, 0.014458499994361773, 0.03848439999273978, 0.05627380000078119, 0.07398190000094473, 0.09108220000052825, 0.10897609998937696, 0.12614290000055917, 0.14250989998981822, 0.16903710000042338, 0.1885647000017343, 0.20752319999155588, 0.2246607999986736, 0.24117529999057297, 0.25922300000092946, 0.27742339999531396, 0.292237199988449, 0.3191145999880973, 0.33879689998866525, 0.3560960999893723, 0.3757885999948485, 0.3921602999907918, 0.4096572999987984, 0.4256600999942748, 0.4517831999983173, 0.47285929998906795, 0.4906477999902563, 0.508511299995007, 0.5263792999903671, 0.5427003999939188, 0.5605209999921499, 0.5863793999888003, 0.6056525000021793, 0.6245724999898812, 0.6435339000017848, 0.6587020000006305, 0.6851564999960829, 0.7052589999948395, 0.7259938999923179, 0.7437621999997646, 0.7696004999888828, 0.7872401999920839, 0.8052405999915209, 0.8219032999913907, 0.8401555999880657, 0.8582472999987658, 0.8745471000001999, 0.8915590999968117, 0.9092900999967242, 0.9278937999915797, 0.9417877999949269, 0.9687673000007635, 0.9886093999957666, 1.0074974999879487, 1.0244640999881085, 1.0411094000010053, 1.05821350000042, 1.0844624000019394, 1.1044791999884183, 1.1220479999901727, 1.1413151000015205, 1.1588753999967594, 1.1746410999912769, 1.2008652999938931, 1.2214478999958374, 1.2396649000002071, 1.2584245999896666, 1.2764547999977367, 1.3024197999911848, 1.3220079999882728, 1.3408916999906069, 1.3587467999896035, 1.3761176999978488, 1.3918942999880528, 1.4180532999889692]",0.0063450800080318,1.445134980007424,75.31185260000348,None,75.31185260000348,None,75.31185260000348,None,75.31185260000348,75.81488380000519,75.31185260000348,None,,,,,,,,,,,,,,,,,,,,,,,,,,,,,,,,,,,,,,,,,,,,,,,,,,,,,,,,,,,,,0,001,2020_Oct_14_1335,vm_20xx,2020.2.4,59.62542118144081,
-0.3,-0.3,0,,,,,0,15,15,6,,,,,,,,,,,,,,,,,,,,,76.33160469999711,None,76.33160469999711,None,76.98380319999706,None,76.33160469999711,None,"[0.0, 0.0, 0.0, 0.0, 0.0, 0.0, 0.0, 0.0, 0.0, 0.0, 0.0, 0.0, 0.0, 0.0, 0.0, 0.0, 0.0, 0.0, 0.0, 0.0, 0.0, 0.0, 0.0, 0.0, 0.0, 0.0, 0.0, 0.0, 0.0, 0.0, 0.0, 0.0, 0.0, 0.0, 0.0]","[0.0, 0.0, 0.0, 0.0, 0.0, 0.0, 0.0, 0.0, 0.0, 0.0, 0.0, 0.0, 0.0, 0.0, 0.0, 0.0, 0.0, 0.0, 0.0, 0.0, 0.0, 0.0, 0.0, 0.0, 0.0, 0.0, 0.0, 0.0, 0.0, 0.0, 0.0, 0.0, 0.0, 0.0, 0.0]","[0, 0, 0, 0, 0, 0, 0, 0, 0, 0, 0, 0, 0, 0, 0, 0, 0, 0, 0, 0, 0, 0, 0, 0, 0, 0, 0, 0, 0, 0, 0, 0, 0, 0, 0]","[0, 0, 0, 0, 0, 0, 0, 0, 0, 0, 0, 0, 0, 0, 0, 0, 0, 0, 0, 0, 0, 0, 0, 0, 0, 0, 0, 0, 0, 0, 0, 0, 0, 0, 0]","[0, 0, 0, 0, 0, 0, 0, 0, 0, 0, 0, 0, 0, 0, 0, 0, 0, 0, 0, 0, 0, 0, 0, 0, 0, 0, 0, 0, 0, 0, 0, 0, 0, 0, 0]","[0.0007012999994913116, 0.012995800003409386, 0.03949310000461992, 0.05774849999579601, 0.07530749999568798, 0.09432669999659993, 0.11234330000297632, 0.12872059999790508, 0.1542704000021331, 0.17411900000297464, 0.19151590000547003, 0.20909750000282656, 0.22699270000157412, 0.24556789999769535, 0.2620885999931488, 0.2879769999999553, 0.30757039999298286, 0.32728060000226833, 0.3456724999996368, 0.36241469999367837, 0.37821480000275187, 0.3957098999962909, 0.4107016000052681, 0.4281623999995645, 0.4448597000009613, 0.46174559999781195, 0.4881100000056904, 0.5073302999953739, 0.5250203000032343, 0.5438244999968447, 0.5628664999967441, 0.5780138999980409, 0.603982000000542, 0.6245518000068842, 0.6459723000007216]",0.005123880007886328,0.6701540800131625,78.40795870000147,None,78.40795870000147,None,78.40795870000147,None,78.40795870000147,78.90897340000083,78.40795870000147,None,,,,,,,,,,,,,,,,,,,,,,,,,,,,,,,,,,,,,,,,,,,,,,,,,,,,,,,,,,,,,0,001,2020_Oct_14_1335,vm_20xx,2020.2.4,59.62542118144081,
,,,,,,,,,,,,,,,,,,,,,,,,,,,,,,,,,,,,,,,,,,,,,,,,,,,,,,,,,79.22815969999647,None,0.25095398000848945,None,,,,,,,,,,,,,,,,,,,,,,,,,,,,,,,,,,,,,,,,,,,,,,,,,,,,,,,,,0,001,2020_Oct_14_1335,vm_20xx,2020.2.4,59.62542118144081,
0.3,-0.3,0,,,,,,,,,0,0,0,0,0,0,0,3,,,,,,,,,,,,,,,,,,,,,,,,,,,,,,,,,,,,,,,,,,,80.87128530000336,None,80.87128530000336,None,81.41007450000325,None,80.87128530000336,None,"[0.0, 0.0, 0.0, 0.0, 0.0, 0.0, 0.0, 0.0, 0.0, 0.0, 0.0, 0.0, 0.0, 0.0, 0.0, 0.0, 0.0, 0.0, 0.0, 0.0, 0.0, 0.0, 0.0, 0.0, 0.0, 0.0, 0.0, 0.0, 0.0, 0.0, 0.0, 0.0, 0.0, 0.0, 0.0, 0.0, 0.0, 0.0, 0.0, 0.0, 0.0, 0.0, 0.0, 0.0, 0.0, 0.0, 0.0, 0.0, 0.0, 0.0, 0.0, 0.017592592592592594, 0.04537037037037037, 0.062037037037037036, 0.08796296296296297, 0.10555555555555556, 0.12129629629629629, 0.14722222222222223, 0.17222222222222222, 0.18425925925925926, 0.20092592592592592, 0.21296296296296297, 0.22777777777777777, 0.24351851851851852, 0.25462962962962965, 0.262037037037037, 0.2657407407407407, 0.2740740740740741, 0.27685185185185185, 0.2796296296296296, 0.2814814814814815, 0.2833333333333333]","[0.0, 0.0, 0.0, 0.0, 0.0, 0.0, 0.0, 0.0, 0.0, 0.0, 0.0, 0.0, 0.0, 0.0, 0.0, 0.0, 0.0, 0.0, 0.0, 0.0, 0.0, 0.0, 0.0, 0.0, 0.0, 0.0, 0.0, 0.0, 0.0, 0.0, 0.0, 0.0, 0.0, 0.0, 0.0, 0.0, 0.0, 0.0, 0.0, 0.0, 0.0, 0.0, 0.0, 0.0, 0.0, 0.0, 0.0, 0.0, 0.0, 0.0, 0.0, -0.019444444444444445, -0.04722222222222222, -0.06296296296296296, -0.08888888888888889, -0.10648148148148148, -0.125, -0.15092592592592594, -0.17777777777777778, -0.19166666666666668, -0.20833333333333334, -0.22037037037037038, -0.23703703703703705, -0.25277777777777777, -0.2638888888888889, -0.2712962962962963, -0.275, -0.28425925925925927, -0.28888888888888886, -0.2916666666666667, -0.29444444444444445, -0.2972222222222222]","[0, 0, 0, 0, 0, 0, 0, 0, 0, 0, 0, 0, 0, 0, 0, 0, 0, 0, 0, 0, 0, 0, 0, 0, 0, 0, 0, 0, 0, 0, 0, 0, 0, 0, 0, 0, 0, 0, 0, 1, 1, 1, 1, 1, 1, 1, 1, 1, 1, 1, 1, 1, 1, 1, 1, 1, 1, 1, 1, 1, 1, 1, 1, 1, 1, 1, 1, 1, 1, 1, 1, 1]","[0, 0, 0, 0, 0, 0, 0, 0, 0, 0, 0, 0, 0, 0, 0, 0, 0, 0, 0, 0, 0, 0, 0, 0, 0, 0, 0, 0, 0, 0, 0, 0, 0, 0, 0, 0, 0, 0, 0, 0, 0, 0, 0, 0, 0, 0, 0, 0, 0, 0, 0, 0, 0, 0, 0, 0, 0, 0, 0, 0, 0, 0, 0, 0, 0, 0, 0, 0, 0, 0, 0, 0]","[0, 0, 0, 0, 0, 0, 0, 0, 0, 0, 0, 0, 0, 0, 0, 0, 0, 0, 0, 0, 0, 0, 0, 0, 0, 0, 0, 0, 0, 0, 0, 0, 0, 0, 0, 0, 0, 0, 0, 0, 0, 0, 0, 0, 0, 0, 0, 0, 0, 0, 0, 0, 0, 0, 0, 0, 0, 0, 0, 0, 0, 0, 0, 0, 0, 0, 0, 0, 0, 0, 0, 0]","[0.0005167000053916126, 0.01781059999484569, 0.03377439999894705, 0.06022030000167433, 0.07947640000202227, 0.0985932000039611, 0.11565750000590924, 0.13328039999760222, 0.16042230000311974, 0.18010979999962728, 0.1989917000028072, 0.21677169999748003, 0.24356230000557844, 0.26575340000272263, 0.28380279999691993, 0.29980710000381805, 0.32655440000235103, 0.3468202000076417, 0.3662144999980228, 0.38333090000378434, 0.39934299999731593, 0.42543170000135433, 0.446430900003179, 0.465487800000119, 0.48296470000059344, 0.5006503000040539, 0.5267349000059767, 0.5464091000030749, 0.5668507000082172, 0.5833950999949593, 0.5996298999962164, 0.6164992999983951, 0.6429212000075495, 0.6632316000032006, 0.6827204000001075, 0.6999059000081616, 0.7160489000089001, 0.7431015000038315, 0.7644694000046002, 0.7843200000061188, 0.8014647999953013, 0.8261028999986593, 0.844438900006935, 0.8618920000008075, 0.8793158000044059, 0.8964983000041684, 0.9151115999993635, 0.933195000005071, 0.9488597000017762, 0.9758288000011817, 0.9950118999986444, 1.0151627000013832, 1.0354732999985572, 1.0498461999959545, 1.0675948999996763, 1.0922408000042196, 1.1128693000064231, 1.131939800005057, 1.1505455000005895, 1.168821500003105, 1.1855701000022236, 1.2096325000020443, 1.2300084000016795, 1.249440700004925, 1.2659821999986889, 1.2828677000070456, 1.3091693000023952, 1.3297307000029832, 1.3496562000073027, 1.367268400004832, 1.3847979999991367, 1.4099684999964666]",0.5697637199918972,None,82.88456630001019,None,82.88456630001019,None,82.88456630001019,None,82.88456630001019,83.38568459999806,82.88456630001019,None,,,,,,,,,,,,,,,,,,,,,,,,,,,,,,,0,001,2020_Oct_14_1335,vm_20xx,2020.2.4,59.62542118144081,
-0.3,-0.3,0,,,,,,,,,0,0,0,0,0,1,1,6,,,,,,,,,,,,,,,,,,,,,,,,,,,,,,,,,,,,,,,,,,,83.87287330000254,None,83.87287330000254,None,84.90691839999636,None,83.87287330000254,None,"[0.0, 0.0, 0.0, 0.0, 0.0, 0.0, 0.0, 0.0, 0.0, 0.0, 0.0, 0.0, 0.0, 0.0, 0.0, 0.0, 0.0, 0.0, 0.0, 0.0, 0.0, 0.0, 0.0, 0.0, 0.0, 0.0, 0.0, 0.0, 0.0, 0.0, 0.0, 0.0, 0.0, 0.0, 0.0, 0.0, 0.0, 0.0, 0.0, 0.0, 0.0, 0.0, 0.0, 0.0, 0.0, 0.0, 0.0, 0.0, 0.0, -0.004629629629629629, -0.03888888888888889, -0.06111111111111111, -0.08796296296296297, -0.1175925925925926, -0.14907407407407408, -0.15833333333333333, -0.17407407407407408, -0.18611111111111112, -0.19537037037037036, -0.2111111111111111, -0.225, -0.23703703703703705, -0.24814814814814815, -0.26666666666666666, -0.2824074074074074, -0.3055555555555556, -0.325]","[0.0, 0.0, 0.0, 0.0, 0.0, 0.0, 0.0, 0.0, 0.0, 0.0, 0.0, 0.0, 0.0, 0.0, 0.0, 0.0, 0.0, 0.0, 0.0, 0.0, 0.0, 0.0, 0.0, 0.0, 0.0, 0.0, 0.0, 0.0, 0.0, 0.0, 0.0, 0.0, 0.0, 0.0, 0.0, 0.0, 0.0, 0.0, 0.0, 0.0, 0.0, 0.0, 0.0, 0.0, 0.0, 0.0, 0.0, 0.0, 0.0, -0.005555555555555556, -0.03425925925925926, -0.053703703703703705, -0.07685185185185185, -0.09537037037037037, -0.11574074074074074, -0.12314814814814815, -0.13148148148148148, -0.1398148148148148, -0.14444444444444443, -0.1527777777777778, -0.16018518518518518, -0.1675925925925926, -0.175, -0.18796296296296297, -0.2, -0.21481481481481482, -0.22777777777777777]","[0, 0, 0, 0, 0, 0, 0, 0, 0, 0, 0, 0, 0, 0, 0, 0, 0, 0, 0, 0, 0, 0, 0, 0, 0, 0, 0, 0, 0, 0, 0, 0, 0, 0, 0, 1, 1, 1, 1, 1, 1, 1, 1, 1, 1, 1, 1, 1, 1, 1, 1, 1, 1, 1, 1, 1, 1, 1, 1, 1, 1, 1, 1, 1, 1, 1, 1]","[0, 0, 0, 0, 0, 0, 0, 0, 0, 0, 0, 0, 0, 0, 0, 0, 0, 0, 0, 0, 0, 0, 0, 0, 0, 0, 0, 0, 0, 0, 0, 0, 0, 0, 0, 0, 0, 0, 0, 0, 0, 0, 0, 0, 0, 0, 0, 0, 0, 0, 0, 0, 0, 0, 0, 0, 0, 0, 0, 0, 0, 0, 0, 0, 0, 0, 0]","[0, 0, 0, 0, 0, 0, 0, 0, 0, 0, 0, 0, 0, 0, 0, 0, 0, 0, 0, 0, 0, 0, 0, 0, 0, 0, 0, 0, 0, 0, 0, 0, 0, 0, 0, 0, 0, 0, 0, 0, 0, 0, 0, 0, 0, 0, 0, 0, 0, 0, 0, 0, 0, 0, 0, 0, 0, 0, 0, 0, 0, 0, 0, 0, 0, 0, 0]","[0.0008722999918973073, 0.015669000000343658, 0.04276399999798741, 0.06427380000241101, 0.08555829999386333, 0.10139329999219626, 0.12788230000296608, 0.14838299999246374, 0.1671885999967344, 0.1829416999971727, 0.20035889999417122, 0.2263542000000598, 0.2466093999973964, 0.2649558999983128, 0.2819870999956038, 0.3000140999938594, 0.3165268000011565, 0.3435223999986192, 0.36412230000132695, 0.3833611000009114, 0.399802500003716, 0.42714430000341963, 0.44739889999618754, 0.465981000001193, 0.4837567999929888, 0.4998399000032805, 0.5164224000036484, 0.5331053999980213, 0.5509439000015846, 0.5681253999937326, 0.5925274000037462, 0.611796899989713, 0.6312094000022626, 0.649988499993924, 0.6662918999936664, 0.6944324999931268, 0.7141405000002123, 0.7321621000010055, 0.7482296999951359, 0.76461479999125, 0.7824101000005612, 0.7988326999911806, 0.8251680999965174, 0.8468451999942772, 0.875114599999506, 0.894187999991118, 0.9125302000029478, 0.9317021000024397, 0.9566449999983888, 0.9815650999953505, 1.0069531999906758, 1.028733300001477, 1.0559983999992255, 1.0823881999967853, 1.1106466999917757, 1.1300767999928212, 1.150261999995564, 1.1672042999998666, 1.1934843999915756, 1.2131044999987353, 1.2352902999991784, 1.2550352999969618, 1.277105599991046, 1.2962085000035586, 1.3140624999941792, 1.3353046999982325, 1.3584896999964258]",1.0591248799901223,None,86.31647180000436,None,86.31647180000436,None,86.31647180000436,None,86.31647180000436,86.81796739999845,86.31647180000436,None,,,,,,,,,,,,,,,,,,,,,,,,,,,,,,,0,001,2020_Oct_14_1335,vm_20xx,2020.2.4,59.62542118144081,
-0.3,-0.3,0,,,,,,,,,0,0,0,0,0,2,2,2,,,,,,,,,,,,,,,,,,,,,,,,,,,,,,,,,,,,,,,,,,,87.30392289999872,None,87.30392289999872,None,87.78729839999869,None,87.30392289999872,None,"[0.0, 0.0, 0.0, 0.0, 0.0, 0.0, 0.0, 0.0, 0.0, 0.0, 0.0, 0.0, 0.0, 0.0, 0.0, 0.0, 0.0, 0.0, 0.0, 0.0, 0.0, 0.0, 0.0, 0.0, 0.0, 0.0, 0.0, 0.0, 0.0, 0.0, 0.0, 0.0, 0.0, 0.0, 0.0, 0.0, 0.0, 0.0, 0.0, 0.0, 0.0, 0.0, 0.0, 0.0, 0.0, 0.0, 0.0, 0.0, 0.0, 0.0, 0.0, 0.0, 0.0, 0.0, 0.0, 0.0, 0.0, 0.0, 0.0, 0.0, 0.0, 0.0, 0.0, 0.0, 0.0, 0.0, 0.0, 0.0, 0.0, 0.0, 0.0, 0.0, 0.0, 0.0, 0.0, 0.0, 0.0, 0.0, -0.003703703703703704, -0.006481481481481481, -0.012037037037037037, -0.013888888888888888, -0.016666666666666666, -0.020370370370370372, -0.024074074074074074, -0.026851851851851852, -0.037037037037037035, -0.04814814814814815, -0.05740740740740741, -0.06388888888888888, -0.07407407407407407, -0.08425925925925926, -0.08796296296296297, -0.09907407407407408, -0.10462962962962963, -0.11481481481481481, -0.12314814814814815, -0.13240740740740742, -0.1425925925925926, -0.15185185185185185, -0.15648148148148147, -0.16666666666666666, -0.1712962962962963]","[0.0, 0.0, 0.0, 0.0, 0.0, 0.0, 0.0, 0.0, 0.0, 0.0, 0.0, 0.0, 0.0, 0.0, 0.0, 0.0, 0.0, 0.0, 0.0, 0.0, 0.0, 0.0, 0.0, 0.0, 0.0, 0.0, 0.0, 0.0, 0.0, 0.0, 0.0, 0.0, 0.0, 0.0, 0.0, 0.0, 0.0, 0.0, 0.0, 0.0, 0.0, 0.0, 0.0, 0.0, 0.0, 0.0, 0.0, 0.0, 0.0, 0.0, 0.0, 0.0, 0.0, 0.0, 0.0, 0.0, 0.0, 0.0, 0.0, 0.0, 0.0, 0.0, 0.0, 0.0, 0.0, 0.0, 0.0, 0.0, 0.0, 0.0, 0.0, 0.0, 0.0, 0.0, 0.0, 0.0, 0.0, 0.0, -0.008333333333333333, -0.01574074074074074, -0.025, -0.028703703703703703, -0.03611111111111111, -0.04259259259259259, -0.049074074074074076, -0.05740740740740741, -0.0787037037037037, -0.09722222222222222, -0.11296296296296296, -0.12407407407407407, -0.14351851851851852, -0.16111111111111112, -0.17314814814814813, -0.19722222222222222, -0.21296296296296297, -0.2361111111111111, -0.2490740740740741, -0.26944444444444443, -0.29444444444444445, -0.3101851851851852, -0.3277777777777778, -0.35185185185185186, -0.36574074074074076]","[0, 0, 0, 0, 0, 0, 0, 0, 0, 0, 0, 0, 0, 0, 0, 0, 0, 0, 0, 0, 0, 0, 0, 0, 0, 0, 0, 0, 0, 0, 0, 0, 0, 0, 0, 0, 0, 0, 0, 0, 0, 0, 0, 0, 0, 0, 0, 0, 0, 0, 0, 0, 0, 0, 0, 0, 0, 0, 0, 0, 0, 0, 0, 0, 1, 1, 1, 1, 1, 1, 1, 1, 1, 1, 1, 1, 1, 1, 1, 1, 1, 1, 1, 1, 1, 1, 1, 1, 1, 1, 1, 1, 1, 1, 1, 1, 1, 1, 1, 1, 1, 1, 1]","[0, 0, 0, 0, 0, 0, 0, 0, 0, 0, 0, 0, 0, 0, 0, 0, 0, 0, 0, 0, 0, 0, 0, 0, 0, 0, 0, 0, 0, 0, 0, 0, 0, 0, 0, 0, 0, 0, 0, 0, 0, 0, 0, 0, 0, 0, 0, 0, 0, 0, 0, 0, 0, 0, 0, 0, 0, 0, 0, 0, 0, 0, 0, 0, 0, 0, 0, 0, 0, 0, 0, 0, 0, 0, 0, 0, 0, 0, 0, 0, 0, 0, 0, 0, 0, 0, 0, 0, 0, 0, 0, 0, 0, 0, 0, 0, 0, 0, 0, 0, 0, 0, 0]","[0, 0, 0, 0, 0, 0, 0, 0, 0, 0, 0, 0, 0, 0, 0, 0, 0, 0, 0, 0, 0, 0, 0, 0, 0, 0, 0, 0, 0, 0, 0, 0, 0, 0, 0, 0, 0, 0, 0, 0, 0, 0, 0, 0, 0, 0, 0, 0, 0, 0, 0, 0, 0, 0, 0, 0, 0, 0, 0, 0, 0, 0, 0, 0, 0, 0, 0, 0, 0, 0, 0, 0, 0, 0, 0, 0, 0, 0, 0, 0, 0, 0, 0, 0, 0, 0, 0, 0, 0, 0, 0, 0, 0, 0, 0, 0, 0, 0, 0, 0, 0, 0, 0]","[0.000641100006760098, 0.016274200010229833, 0.04209490001085214, 0.06256930000381544, 0.08179100000415929, 0.09946160000981763, 0.12648849999823142, 0.14641580000170507, 0.1653196000115713, 0.1831096000096295, 0.20991140000114683, 0.2303260000044247, 0.2505249000096228, 0.26565270000719465, 0.292998400007491, 0.3128852000081679, 0.33186840001144446, 0.34895710001001135, 0.376390999997966, 0.39638790000753943, 0.41491839999798685, 0.4328700000041863, 0.46079300000565127, 0.480148000002373, 0.49935650000406895, 0.515903999999864, 0.5316635000053793, 0.5595627000002423, 0.5787710000004154, 0.598580400008359, 0.6154449000023305, 0.6328206000034697, 0.6597274000087054, 0.6804501000005985, 0.699737400005688, 0.7161550000018906, 0.7425166000030003, 0.7630250000074739, 0.7821483000006992, 0.7997350000077859, 0.8150190000014845, 0.8421963000000687, 0.8621074000111548, 0.8812298000120791, 0.8988785000110511, 0.9170371000072919, 0.943017300000065, 0.96251779999875, 0.981147400001646, 0.9993435000069439, 1.016389500000514, 1.03517400000419, 1.052985800008173, 1.0790019999985816, 1.098619600001257, 1.115776899998309, 1.1421039999986533, 1.16270300000906, 1.1825823000108358, 1.1990900000091642, 1.2168500999978278, 1.233768100006273, 1.2591732000000775, 1.2791398000117624, 1.298070300006657, 1.3249847999977646, 1.3447200000082375, 1.3631782000011299, 1.3815408000082243, 1.3974594000028446, 1.4139390000054846, 1.4322520999994595, 1.448670800004038, 1.4654683000117075, 1.4914892000088003, 1.5111890000116546, 1.5310061000054702, 1.5497799000004306, 1.566268000009586, 1.5852014999982202, 1.6022669000085443, 1.6252778000052786, 1.6459022000053665, 1.6667390000075102, 1.6833808000083081, 1.7079205000045476, 1.7282630000117933, 1.749526400002651, 1.766912200007937, 1.7911243999988073, 1.8111831999995047, 1.8313417000026675, 1.8498237000021618, 1.8677546000108123, 1.887343200010946, 1.9029716000077315, 1.9285214000119595, 1.9474716000113403, 1.9671604000031948, 1.985404400009429, 2.0076599000021815, 2.0276343000005, 2.046461600009934]",0.5099098800128559,None,89.88303530000849,None,89.88303530000849,None,89.88303530000849,None,89.88303530000849,90.39671610000369,89.88303530000849,None,,,,,,,,,,,,,,,,,,,,,,,,,,,,,,,0,001,2020_Oct_14_1335,vm_20xx,2020.2.4,59.62542118144081,
0.3,0.3,0,,,,,,,,,0,0,0,0,0,3,3,0,,,,,,,,,,,,,,,,,,,,,,,,,,,,,,,,,,,,,,,,,,,90.88708339999721,None,90.88708339999721,None,92.10098740000103,None,90.88708339999721,None,"[0.0, 0.0, 0.0, 0.0, 0.0, 0.0, 0.0, 0.0, 0.0, 0.0, 0.0, 0.0, 0.0, 0.0, 0.0, 0.0, 0.0, 0.0, 0.0, 0.0, 0.0, 0.0, 0.0, 0.0, 0.0, 0.0, 0.0, 0.0, 0.0, 0.0, 0.0, 0.0, 0.0, 0.0, 0.0, 0.0, 0.0, 0.0, 0.0, 0.0, 0.0, 0.0, 0.0, 0.0, 0.0, 0.0, 0.0, 0.0, 0.0, 0.0, 0.0, 0.0, 0.0, 0.0, 0.0, 0.0, 0.0, 0.0, 0.0, 0.0, 0.0, 0.0, 0.0, 0.0, 0.0, 0.0, 0.0, 0.0, 0.0, 0.0, 0.0, 0.0, -0.003703703703703704, -0.003703703703703704, -0.003703703703703704, -0.004629629629629629, -0.004629629629629629, -0.004629629629629629, -0.004629629629629629, -0.004629629629629629, -0.011111111111111112, -0.012962962962962963, -0.014814814814814815, -0.016666666666666666, -0.016666666666666666, -0.01574074074074074, -0.012962962962962963, -0.007407407407407408, 0.003703703703703704, 0.021296296296296296, 0.04351851851851852, 0.05648148148148148, 0.06851851851851852, 0.08703703703703704, 0.10092592592592593, 0.12037037037037036, 0.13425925925925927, 0.14444444444444443, 0.15833333333333333, 0.16574074074074074, 0.17962962962962964, 0.18611111111111112, 0.1925925925925926, 0.20185185185185187, 0.20833333333333334, 0.21666666666666667, 0.22685185185185186]","[0.0, 0.0, 0.0, 0.0, 0.0, 0.0, 0.0, 0.0, 0.0, 0.0, 0.0, 0.0, 0.0, 0.0, 0.0, 0.0, 0.0, 0.0, 0.0, 0.0, 0.0, 0.0, 0.0, 0.0, 0.0, 0.0, 0.0, 0.0, 0.0, 0.0, 0.0, 0.0, 0.0, 0.0, 0.0, 0.0, 0.0, 0.0, 0.0, 0.0, 0.0, 0.0, 0.0, 0.0, 0.0, 0.0, 0.0, 0.0, 0.0, 0.0, 0.0, 0.0, 0.0, 0.0, 0.0, 0.0, 0.0, 0.0, 0.0, 0.0, 0.0, 0.0, 0.0, 0.0, 0.0, 0.0, 0.0, 0.0, 0.0, 0.0, 0.0, 0.0, 0.010185185185185186, 0.012037037037037037, 0.012037037037037037, 0.012037037037037037, 0.012037037037037037, 0.012962962962962963, 0.012962962962962963, 0.014814814814814815, 0.025, 0.027777777777777776, 0.03518518518518519, 0.041666666666666664, 0.05277777777777778, 0.06574074074074074, 0.07592592592592592, 0.08518518518518518, 0.10277777777777777, 0.12777777777777777, 0.15185185185185185, 0.16203703703703703, 0.17314814814814813, 0.18888888888888888, 0.20185185185185187, 0.2212962962962963, 0.2351851851851852, 0.2462962962962963, 0.26481481481481484, 0.275, 0.287962962962963, 0.2953703703703704, 0.30092592592592593, 0.3138888888888889, 0.32314814814814813, 0.3351851851851852, 0.3453703703703704]","[0, 0, 0, 0, 0, 0, 0, 0, 0, 0, 0, 0, 0, 0, 0, 0, 0, 0, 0, 0, 0, 0, 0, 0, 0, 0, 0, 0, 0, 0, 0, 0, 0, 0, 0, 0, 0, 0, 0, 0, 0, 0, 0, 0, 0, 0, 0, 0, 0, 0, 0, 0, 1, 1, 1, 1, 1, 1, 1, 1, 1, 1, 1, 1, 1, 1, 1, 1, 1, 1, 1, 1, 1, 1, 1, 1, 1, 1, 1, 1, 1, 1, 1, 1, 1, 1, 1, 1, 1, 1, 1, 1, 1, 1, 1, 1, 1, 1, 1, 1, 1, 1, 1, 1, 1, 1, 1]","[0, 0, 0, 0, 0, 0, 0, 0, 0, 0, 0, 0, 0, 0, 0, 0, 0, 0, 0, 0, 0, 0, 0, 0, 0, 0, 0, 0, 0, 0, 0, 0, 0, 0, 0, 0, 0, 0, 0, 0, 0, 0, 0, 0, 0, 0, 0, 0, 0, 0, 0, 0, 0, 0, 0, 0, 0, 0, 0, 0, 0, 0, 0, 0, 0, 0, 0, 0, 0, 0, 0, 0, 0, 0, 0, 0, 0, 0, 0, 0, 0, 0, 0, 0, 0, 0, 0, 0, 0, 0, 0, 0, 0, 0, 0, 0, 0, 0, 0, 0, 0, 0, 0, 0, 0, 0, 0]","[0, 0, 0, 0, 0, 0, 0, 0, 0, 0, 0, 0, 0, 0, 0, 0, 0, 0, 0, 0, 0, 0, 0, 0, 0, 0, 0, 0, 0, 0, 0, 0, 0, 0, 0, 0, 0, 0, 0, 0, 0, 0, 0, 0, 0, 0, 0, 0, 0, 0, 0, 0, 0, 0, 0, 0, 0, 0, 0, 0, 0, 0, 0, 0, 0, 0, 0, 0, 0, 0, 0, 0, 0, 0, 0, 0, 0, 0, 0, 0, 0, 0, 0, 0, 0, 0, 0, 0, 0, 0, 0, 0, 0, 0, 0, 0, 0, 0, 0, 0, 0, 0, 0, 0, 0, 0, 0]","[0.0015503000031458214, 0.01683940000657458, 0.04205240000737831, 0.06189290000475012, 0.0813235999958124, 0.09829910000553355, 0.12473070000123698, 0.1442207999934908, 0.16349550000450108, 0.1844219000049634, 0.20020429999567568, 0.22482509999827016, 0.2458290000067791, 0.2658798000047682, 0.28129909999552183, 0.3084757000033278, 0.328611799995997, 0.357689800002845, 0.37735280000197235, 0.3973194999998668, 0.41455190000124276, 0.4418824000022141, 0.46177730000636075, 0.48114930000156164, 0.49855530000058934, 0.5143629999947734, 0.5413930000067921, 0.561715899995761, 0.5814723999937996, 0.5972310000070138, 0.624228700005915, 0.6445551000069827, 0.6633654000033857, 0.6815244000026723, 0.697720099997241, 0.7245248999970499, 0.7448942000046372, 0.763521300003049, 0.7816653000045335, 0.7984286999999313, 0.8235737000068184, 0.8433718000014778, 0.8624280999938492, 0.8810671999963233, 0.8973816999932751, 0.9138434000051348, 0.9303471000021091, 0.9565555000008317, 0.977401900003315, 0.9969867000036174, 1.0144867000053637, 1.0409710999956587, 1.0636362999939593, 1.0809183999954257, 1.0971183000074234, 1.1137929999968037, 1.1301038999954471, 1.1562023000005865, 1.1770579000003636, 1.195970300002955, 1.2139903000061167, 1.2299209000047995, 1.24859909999941, 1.264253600005759, 1.280515699996613, 1.306847600004403, 1.3258672999945702, 1.3435156000050483, 1.3633101000013994, 1.3812627000006614, 1.3965601999952924, 1.4238898000039626, 1.4444443999964278, 1.4624628000019584, 1.4804003000026569, 1.4969907000049716, 1.5234748999937437, 1.5430666000029305, 1.5620767000073101, 1.5823779000056675, 1.5995068000047468, 1.6220164999976987, 1.6370159000070998, 1.6602363999991212, 1.680892300006235, 1.699088599998504, 1.714969900000142, 1.7400453000009293, 1.7600826999987476, 1.7799851000017952, 1.797218799998518, 1.8148428999993484, 1.8319483999948716, 1.8491400000057183, 1.8751975000050152, 1.896503500000108, 1.9142715000052704, 1.9328341000073124, 1.9500658000033582, 1.9778882999962661, 1.9970537000044715, 2.0147148999967612, 2.030389399995329, 2.047905900006299, 2.0747446000023047, 2.0952536999975564, 2.114257799999905]",1.233943579994957,None,94.27717020000273,None,94.27717020000273,None,94.27717020000273,None,94.27717020000273,94.78079570000409,94.27717020000273,None,,,,,,,,,,,,,,,,,,,,,,,,,,,,,,,0,001,2020_Oct_14_1335,vm_20xx,2020.2.4,59.62542118144081,
0.3,0.3,0,,,,,,,,,0,0,0,0,0,4,4,8,,,,,,,,,,,,,,,,,,,,,,,,,,,,,,,,,,,,,,,,,,,95.26224820000061,None,95.26224820000061,None,95.96143239999947,None,95.26224820000061,None,"[0.0, 0.0, 0.0, 0.0, 0.0, 0.0, 0.0, 0.0, 0.0, 0.0, 0.0, 0.0, 0.0, 0.0, 0.0, 0.0, 0.0, 0.0, 0.0, 0.0, 0.0, 0.0, 0.0, 0.0, 0.0, 0.0, 0.006481481481481481, 0.002777777777777778, 0.005555555555555556, 0.0, 0.006481481481481481, 0.002777777777777778, 0.006481481481481481, 0.002777777777777778, 0.005555555555555556, 0.004629629629629629, 0.0, 0.005555555555555556, 0.005555555555555556, 0.008333333333333333, 0.004629629629629629, 0.007407407407407408, 0.005555555555555556, 0.002777777777777778, 0.0, 0.003703703703703704, 0.003703703703703704, 0.009259259259259259, 0.001851851851851852, 0.003703703703703704, 0.0, 0.0, 0.0, 0.0, 0.0, 0.0, 0.0, 0.0, 0.0, 0.0, 0.0, 0.0, 0.0, 0.0, 0.0, 0.0, 0.0, 0.0, 0.0, 0.0, 0.0, 0.0, 0.0, 0.0, 0.0, 0.0, 0.0, 0.0, 0.0, 0.0, 0.007407407407407408, 0.032407407407407406, 0.05555555555555555, 0.08611111111111111, 0.10277777777777777, 0.10925925925925926, 0.12407407407407407, 0.13796296296296295, 0.14537037037037037, 0.16111111111111112, 0.17407407407407408]","[0.0, 0.0, 0.0, 0.0, 0.0, 0.0, 0.0, 0.0, 0.0, 0.0, 0.0, 0.0, 0.0, 0.0, 0.0, 0.0, 0.0, 0.0, 0.0, 0.0, 0.0, 0.0, 0.0, 0.0, 0.0, 0.0, 0.010185185185185186, 0.010185185185185186, 0.01574074074074074, 0.0, 0.013888888888888888, 0.010185185185185186, 0.012962962962962963, 0.010185185185185186, 0.014814814814814815, 0.009259259259259259, 0.0, 0.008333333333333333, 0.010185185185185186, 0.013888888888888888, 0.008333333333333333, 0.008333333333333333, 0.010185185185185186, 0.004629629629629629, 0.0, 0.004629629629629629, 0.004629629629629629, 0.014814814814814815, 0.002777777777777778, 0.003703703703703704, 0.000925925925925926, 0.0, 0.0, 0.0, 0.0, 0.0, 0.0, 0.0, 0.0, 0.0, 0.0, 0.0, 0.0, 0.0, 0.0, 0.0, 0.0, 0.0, 0.0, 0.0, 0.0, 0.0, 0.0, 0.0, 0.0, 0.0, 0.0, 0.0, 0.0, 0.0, 0.012037037037037037, 0.053703703703703705, 0.10185185185185185, 0.1712962962962963, 0.21203703703703702, 0.22962962962962963, 0.25833333333333336, 0.28425925925925927, 0.29907407407407405, 0.3314814814814815, 0.3574074074074074]","[0, 0, 0, 0, 0, 0, 0, 0, 0, 0, 0, 0, 0, 0, 0, 0, 0, 0, 0, 0, 0, 0, 0, 0, 0, 0, 0, 0, 0, 0, 0, 0, 0, 0, 0, 0, 0, 0, 0, 0, 0, 0, 0, 0, 0, 0, 0, 0, 0, 0, 0, 0, 0, 0, 0, 0, 0, 0, 0, 0, 0, 0, 0, 0, 0, 0, 0, 1, 1, 1, 1, 1, 1, 1, 1, 1, 1, 1, 1, 1, 1, 1, 1, 1, 1, 1, 1, 1, 1, 1, 1]","[0, 0, 0, 0, 0, 0, 0, 0, 0, 0, 0, 0, 0, 0, 0, 0, 0, 0, 0, 0, 0, 0, 0, 0, 0, 0, 0, 0, 0, 0, 0, 0, 0, 0, 0, 0, 0, 0, 0, 0, 0, 0, 0, 0, 0, 0, 0, 0, 0, 0, 0, 0, 0, 0, 0, 0, 0, 0, 0, 0, 0, 0, 0, 0, 0, 0, 0, 0, 0, 0, 0, 0, 0, 0, 0, 0, 0, 0, 0, 0, 0, 0, 0, 0, 0, 0, 0, 0, 0, 0, 0]","[0, 0, 0, 0, 0, 0, 0, 0, 0, 0, 0, 0, 0, 0, 0, 0, 0, 0, 0, 0, 0, 0, 0, 0, 0, 0, 0, 0, 0, 0, 0, 0, 0, 0, 0, 0, 0, 0, 0, 0, 0, 0, 0, 0, 0, 0, 0, 0, 0, 0, 0, 0, 0, 0, 0, 0, 0, 0, 0, 0, 0, 0, 0, 0, 0, 0, 0, 0, 0, 0, 0, 0, 0, 0, 0, 0, 0, 0, 0, 0, 0, 0, 0, 0, 0, 0, 0, 0, 0, 0, 0]","[0.0004474000015761703, 0.017290800009504892, 0.044296500011114404, 0.063733000002685, 0.08307310000236612, 0.10061270000005607, 0.11810390000755433, 0.13402850000420585, 0.1618773000082001, 0.18162100001063664, 0.2020028000115417, 0.22212669999862555, 0.241216100010206, 0.2583502000052249, 0.275398400000995, 0.291743800000404, 0.31392300000879914, 0.3337241000117501, 0.35081370000261813, 0.3778515000012703, 0.39847060000465717, 0.4171604000002844, 0.44492120000359137, 0.46457640000153333, 0.4933766000031028, 0.5155725000076927, 0.538557200008654, 0.5562478000065312, 0.5798158000106923, 0.6029255000030389, 0.6232042000046931, 0.6479655000002822, 0.6671066999988398, 0.6856455000088317, 0.7053937000018777, 0.7291181000036886, 0.7499641000031261, 0.7681586000107927, 0.7886734000057913, 0.8052569999999832, 0.8318066000065301, 0.8542358000122476, 0.8716455000103451, 0.8962387000065064, 0.9167063000058988, 0.9351059000036912, 0.954201100001228, 0.9718522000039229, 0.9873999000119511, 1.0156706999987364, 1.0344292000081623, 1.0503601000091294, 1.0673891000042204, 1.0936701000027824, 1.1136111000087112, 1.132340700001805, 1.1499148000002606, 1.165872199999285, 1.1829542000050424, 1.2091953000053763, 1.229437300004065, 1.2486364000069443, 1.2666280999983428, 1.2938117000012426, 1.3143597000016598, 1.3328927000111435, 1.3503019000054337, 1.3674203000118723, 1.3824852000107057, 1.3991710999980569, 1.4136816000100225, 1.4322504000010667, 1.4459914000035496, 1.4638440999988234, 1.4820466000091983, 1.501251300011063, 1.5166917000024114, 1.542154599999776, 1.5617918000061763, 1.5811890000040876, 1.6003274000104284, 1.6159753000101773, 1.6432148000021698, 1.663703500002157, 1.6826041000022087, 1.7000683000078425, 1.7222565000120085, 1.7373162000003504, 1.7619946000049822, 1.7821643000061158, 1.8031287000048906]",0.7237128800043138,None,97.81527479999932,None,97.81527479999932,None,97.81527479999932,None,97.81527479999932,98.3223408000049,97.81527479999932,None,,,,,,,,,,,,,,,,,,,,,,,,,,,,,,,0,001,2020_Oct_14_1335,vm_20xx,2020.2.4,59.62542118144081,
-0.3,-0.3,0,,,,,,,,,0,0,0,0,0,5,5,10,,,,,,,,,,,,,,,,,,,,,,,,,,,,,,,,,,,,,,,,,,,98.81126460000814,None,98.81126460000814,None,99.825213300006,None,98.81126460000814,None,"[0.0, 0.0, 0.0, 0.0, 0.0, 0.0, 0.0, 0.0, 0.0, 0.0, 0.0, 0.0, 0.0, 0.0, 0.0, 0.0, 0.0, 0.0, 0.0, 0.0, 0.0, 0.0, 0.0, 0.0, 0.0, 0.0, 0.0, 0.0, 0.0, 0.0, 0.0, 0.0, 0.0, 0.0, 0.0, 0.0, 0.0, 0.0, 0.0, 0.0, 0.0, 0.0, 0.0, 0.0, 0.0, 0.0, 0.0, 0.006481481481481481, 0.016666666666666666, 0.027777777777777776, 0.037037037037037035, 0.041666666666666664, 0.05, 0.05740740740740741, 0.062037037037037036, 0.07407407407407407, 0.08981481481481482, 0.09907407407407408, 0.10648148148148148, 0.11296296296296296, 0.12222222222222222, 0.12685185185185185, 0.13425925925925927, 0.1388888888888889, 0.14629629629629629, 0.15092592592592594]","[0.0, 0.0, 0.0, 0.0, 0.0, 0.0, 0.0, 0.0, 0.0, 0.0, 0.0, 0.0, 0.0, 0.0, 0.0, 0.0, 0.0, 0.0, 0.0, 0.0, 0.0, 0.0, 0.0, 0.0, 0.0, 0.0, 0.0, 0.0, 0.0, 0.0, 0.0, 0.0, 0.0, 0.0, 0.0, 0.0, 0.0, 0.0, 0.0, 0.0, 0.0, 0.0, 0.0, 0.0, 0.0, 0.0, 0.0, -0.017592592592592594, -0.044444444444444446, -0.07407407407407407, -0.10833333333333334, -0.13240740740740742, -0.16018518518518518, -0.17777777777777778, -0.1935185185185185, -0.21666666666666667, -0.2462962962962963, -0.2657407407407407, -0.2861111111111111, -0.30092592592592593, -0.32314814814814813, -0.3351851851851852, -0.3472222222222222, -0.3537037037037037, -0.3712962962962963, -0.38333333333333336]","[0, 0, 0, 0, 0, 0, 0, 0, 0, 0, 0, 0, 0, 0, 0, 0, 0, 0, 0, 0, 0, 0, 0, 0, 0, 0, 0, 0, 0, 0, 0, 0, 0, 1, 1, 1, 1, 1, 1, 1, 1, 1, 1, 1, 1, 1, 1, 1, 1, 1, 1, 1, 1, 1, 1, 1, 1, 1, 1, 1, 1, 1, 1, 1, 1, 1]","[0, 0, 0, 0, 0, 0, 0, 0, 0, 0, 0, 0, 0, 0, 0, 0, 0, 0, 0, 0, 0, 0, 0, 0, 0, 0, 0, 0, 0, 0, 0, 0, 0, 0, 0, 0, 0, 0, 0, 0, 0, 0, 0, 0, 0, 0, 0, 0, 0, 0, 0, 0, 0, 0, 0, 0, 0, 0, 0, 0, 0, 0, 0, 0, 0, 0]","[0, 0, 0, 0, 0, 0, 0, 0, 0, 0, 0, 0, 0, 0, 0, 0, 0, 0, 0, 0, 0, 0, 0, 0, 0, 0, 0, 0, 0, 0, 0, 0, 0, 0, 0, 0, 0, 0, 0, 0, 0, 0, 0, 0, 0, 0, 0, 0, 0, 0, 0, 0, 0, 0, 0, 0, 0, 0, 0, 0, 0, 0, 0, 0, 0, 0]","[0.0005182000022614375, 0.01740899999276735, 0.03547019998950418, 0.06099499999254476, 0.08122419999563135, 0.09998040000209585, 0.11886429999140091, 0.14596539999183733, 0.16656899999361485, 0.18579279999539722, 0.20520219999889378, 0.22222809999948367, 0.2472284999967087, 0.26719230000162497, 0.2843025999900419, 0.3009453999984544, 0.3274385999975493, 0.3480525999912061, 0.36937239998951554, 0.3940251000021817, 0.4139842000004137, 0.4335323999985121, 0.453886599992984, 0.47032039999612607, 0.4961029999976745, 0.5163819000008516, 0.5378531000023941, 0.5626447999966331, 0.5828805999917677, 0.6008834999956889, 0.6189487999945413, 0.6432882999943104, 0.6635456999938469, 0.6832561999908648, 0.6995313999941573, 0.715926999997464, 0.7327476999926148, 0.749780500002089, 0.7757054999965476, 0.7943432000029134, 0.8133656999998493, 0.8333120000024792, 0.8500127000006614, 0.865700399997877, 0.8925559999916004, 0.9122610999911558, 0.9324092000024393, 0.950524999992922, 0.9689537999947788, 0.9937585000006948, 1.0143505000014557, 1.0345422999962466, 1.0519526999996742, 1.0692476999975042, 1.0938355999969644, 1.1135235999972792, 1.1326064000022598, 1.1531725999957416, 1.1705994999938412, 1.1962275999976555, 1.2147129999939352, 1.2332701999985147, 1.2504335999983596, 1.2771158999967156, 1.2999064000032376, 1.31924589999835]",1.036705280013848,None,101.20400250000239,None,101.20400250000239,None,101.20400250000239,None,101.20400250000239,101.71902230000705,101.20400250000239,None,,,,,,,,,,,,,,,,,,,,,,,,,,,,,,,0,001,2020_Oct_14_1335,vm_20xx,2020.2.4,59.62542118144081,
-0.3,0.3,0,,,,,,,,,0,0,0,0,0,6,6,13,,,,,,,,,,,,,,,,,,,,,,,,,,,,,,,,,,,,,,,,,,,102.19811810000101,None,102.19811810000101,None,103.31805500001065,None,102.19811810000101,None,"[0.0, 0.0, 0.0, 0.0, 0.0, 0.0, 0.0, 0.0, 0.0, 0.0, 0.0, 0.0, 0.0, 0.0, 0.0, 0.0, 0.0, 0.0, 0.0, 0.0, 0.0, 0.0, 0.0, 0.0, 0.0, 0.0, 0.0, 0.0, 0.0, 0.0, 0.0, 0.0, 0.0, 0.0, 0.0, 0.0, 0.0, 0.0, 0.0, 0.0, 0.0, 0.0, 0.0, -0.004629629629629629, -0.03333333333333333, -0.04722222222222222, -0.08055555555555556, -0.1037037037037037, -0.13333333333333333, -0.1638888888888889, -0.19166666666666668, -0.20925925925925926, -0.23796296296296296, -0.25833333333333336, -0.27870370370370373, -0.2935185185185185]","[0.0, 0.0, 0.0, 0.0, 0.0, 0.0, 0.0, 0.0, 0.0, 0.0, 0.0, 0.0, 0.0, 0.0, 0.0, 0.0, 0.0, 0.0, 0.0, 0.0, 0.0, 0.0, 0.0, 0.0, 0.0, 0.0, 0.0, 0.0, 0.0, 0.0, 0.0, 0.0, 0.0, 0.0, 0.0, 0.0, 0.0, 0.0, 0.0, 0.0, 0.0, 0.0, 0.0, -0.006481481481481481, -0.03888888888888889, -0.05462962962962963, -0.08425925925925926, -0.10740740740740741, -0.1388888888888889, -0.1638888888888889, -0.18981481481481483, -0.2074074074074074, -0.22870370370370371, -0.24537037037037038, -0.2657407407407407, -0.2796296296296296]","[0, 0, 0, 0, 0, 0, 0, 0, 0, 0, 0, 0, 0, 0, 0, 0, 0, 0, 0, 0, 0, 0, 0, 0, 0, 0, 0, 0, 0, 0, 1, 1, 1, 1, 1, 1, 1, 1, 1, 1, 1, 1, 1, 1, 1, 1, 1, 1, 1, 1, 1, 1, 1, 1, 1, 1]","[0, 0, 0, 0, 0, 0, 0, 0, 0, 0, 0, 0, 0, 0, 0, 0, 0, 0, 0, 0, 0, 0, 0, 0, 0, 0, 0, 0, 0, 0, 0, 0, 0, 0, 0, 0, 0, 0, 0, 0, 0, 0, 0, 0, 0, 0, 0, 0, 0, 0, 0, 0, 0, 0, 0, 0]","[0, 0, 0, 0, 0, 0, 0, 0, 0, 0, 0, 0, 0, 0, 0, 0, 0, 0, 0, 0, 0, 0, 0, 0, 0, 0, 0, 0, 0, 0, 0, 0, 0, 0, 0, 0, 0, 0, 0, 0, 0, 0, 0, 0, 0, 0, 0, 0, 0, 0, 0, 0, 0, 0, 0, 0]","[0.0011306999949738383, 0.020412099998793565, 0.039232700000866316, 0.05874069999845233, 0.07636120000097435, 0.09412280000105966, 0.10983109999506269, 0.13452929999039043, 0.1548766999912914, 0.17341879999730736, 0.19284639999386854, 0.20820219999586698, 0.23417709999193903, 0.25407860000268556, 0.27403790000244044, 0.2905640999961179, 0.30735920000006445, 0.33327010000357404, 0.3534266999922693, 0.37365219999628607, 0.3894863000023179, 0.4170867999928305, 0.43677970000135247, 0.4568561999913072, 0.47269179999420885, 0.49000239999440964, 0.5064152999984799, 0.5230899000016507, 0.5502449999912642, 0.5714876999991247, 0.5909480999980588, 0.6169898999942234, 0.6362387999979546, 0.6543760999920778, 0.672560799997882, 0.6904050000011921, 0.7071961999899941, 0.7238567000022158, 0.7498877999896649, 0.7704300999903353, 0.7891910000034841, 0.8070172000007005, 0.8233143999968888, 0.8414925999968546, 0.8601345999923069, 0.8783175999997184, 0.8941505999973742, 0.9198060999915469, 0.939481599998544, 0.9593389999936335, 0.976549699989846, 0.9996875999931945, 1.0201036999933422, 1.0402406999928644, 1.0568136999936542, 1.08247300000221]",1.1255070799961686,None,104.42992029999732,None,104.42992029999732,None,104.42992029999732,None,104.42992029999732,104.93609360000119,104.42992029999732,None,,,,,,,,,,,,,,,,,,,,,,,,,,,,,,,0,001,2020_Oct_14_1335,vm_20xx,2020.2.4,59.62542118144081,
0.3,0.3,0,,,,,,,,,0,0,0,0,0,7,7,12,,,,,,,,,,,,,,,,,,,,,,,,,,,,,,,,,,,,,,,,,,,105.42061040000408,None,105.42061040000408,None,106.73619570001028,None,105.42061040000408,None,"[0.0, 0.0, 0.0, 0.0, 0.0, 0.0, 0.0, 0.0, 0.0, 0.0, 0.0, 0.0, 0.0, 0.0, 0.0, 0.0, 0.0, 0.0, 0.0, 0.0, 0.0, 0.0, 0.0, 0.0, 0.0, 0.0, 0.0, 0.0, 0.0, 0.0, 0.0, 0.0, 0.0, 0.0, 0.0, 0.0, 0.0, 0.0, 0.0, 0.0, 0.0, 0.0, 0.0, 0.0, 0.0, 0.0, 0.0, 0.0, 0.0, 0.0, 0.0, 0.0, 0.0, 0.0, 0.0, 0.0, 0.0, -0.03611111111111111, -0.0787037037037037, -0.11666666666666667, -0.1388888888888889, -0.1824074074074074, -0.21203703703703702, -0.2361111111111111, -0.26481481481481484, -0.27314814814814814, -0.287962962962963, -0.3037037037037037, -0.31574074074074077]","[0.0, 0.0, 0.0, 0.0, 0.0, 0.0, 0.0, 0.0, 0.0, 0.0, 0.0, 0.0, 0.0, 0.0, 0.0, 0.0, 0.0, 0.0, 0.0, 0.0, 0.0, 0.0, 0.0, 0.0, 0.0, 0.0, 0.0, 0.0, 0.0, 0.0, 0.0, 0.0, 0.0, 0.0, 0.0, 0.0, 0.0, 0.0, 0.0, 0.0, 0.0, 0.0, 0.0, 0.0, 0.0, 0.0, 0.0, 0.0, 0.0, 0.0, 0.0, 0.0, 0.0, 0.0, 0.0, 0.0, 0.0, 0.025, 0.06018518518518518, 0.08796296296296297, 0.1037037037037037, 0.1398148148148148, 0.16296296296296298, 0.1814814814814815, 0.2064814814814815, 0.21481481481481482, 0.22685185185185186, 0.2388888888888889, 0.25092592592592594]","[0, 0, 0, 0, 0, 0, 0, 0, 0, 0, 0, 0, 0, 0, 0, 0, 0, 0, 0, 0, 0, 0, 0, 0, 0, 0, 0, 0, 0, 0, 0, 0, 0, 0, 0, 0, 0, 0, 0, 0, 0, 0, 0, 0, 1, 1, 1, 1, 1, 1, 1, 1, 1, 1, 1, 1, 1, 1, 1, 1, 1, 1, 1, 1, 1, 1, 1, 1, 1]","[0, 0, 0, 0, 0, 0, 0, 0, 0, 0, 0, 0, 0, 0, 0, 0, 0, 0, 0, 0, 0, 0, 0, 0, 0, 0, 0, 0, 0, 0, 0, 0, 0, 0, 0, 0, 0, 0, 0, 0, 0, 0, 0, 0, 0, 0, 0, 0, 0, 0, 0, 0, 0, 0, 0, 0, 0, 0, 0, 0, 0, 0, 0, 0, 0, 0, 0, 0, 0]","[0, 0, 0, 0, 0, 0, 0, 0, 0, 0, 0, 0, 0, 0, 0, 0, 0, 0, 0, 0, 0, 0, 0, 0, 0, 0, 0, 0, 0, 0, 0, 0, 0, 0, 0, 0, 0, 0, 0, 0, 0, 0, 0, 0, 0, 0, 0, 0, 0, 0, 0, 0, 0, 0, 0, 0, 0, 0, 0, 0, 0, 0, 0, 0, 0, 0, 0, 0, 0]","[0.0007509999995818362, 0.018820199999026954, 0.03720209999301005, 0.06353620000299998, 0.08185049999156035, 0.09995210000488441, 0.11587860000145156, 0.13327700000081677, 0.15986420000263024, 0.17947400000412017, 0.19830139999976382, 0.21645300000091083, 0.23337040000478737, 0.25023269999655895, 0.268104000002495, 0.2921725000051083, 0.31287670000165235, 0.33302809999440797, 0.3476511000044411, 0.3755139999993844, 0.3957198999996763, 0.42588949999480974, 0.44691499999316875, 0.46575610000581946, 0.48264869999547955, 0.4988551999995252, 0.5161761999916052, 0.5334188999986509, 0.551778099994408, 0.5764373999991221, 0.595249199992395, 0.6140350000059698, 0.6343602999986615, 0.6498107999941567, 0.6761390000028769, 0.6956372999993619, 0.7151940000039758, 0.7328890999924624, 0.7592359999980545, 0.7784257000021171, 0.7977602000028128, 0.8174880000005942, 0.832136700002593, 0.8585619999939809, 0.8795190999953775, 0.8980141999927582, 0.9167240999959176, 0.9321171000046888, 0.9589657000033185, 0.9781531000044197, 0.9961671000055503, 1.014673400000902, 1.0321516999974847, 1.0476823999924818, 1.0751123999943957, 1.095331399992574, 1.1150775999994949, 1.1344572999951197, 1.15116749999288, 1.1697916999983136, 1.19491960000596, 1.2140580999985104, 1.2331852999923285, 1.2497520000033546, 1.2668854999938048, 1.2933892000000924, 1.3131935999990674, 1.3317772000009427, 1.349849099991843]",1.3409579799772473,None,108.13610940000217,None,108.13610940000217,None,108.13610940000217,None,108.13610940000217,108.6494459000096,108.13610940000217,None,,,,,,,,,,,,,,,,,,,,,,,,,,,,,,,0,001,2020_Oct_14_1335,vm_20xx,2020.2.4,59.62542118144081,
0.3,-0.3,0,,,,,,,,,0,0,0,0,0,8,8,15,,,,,,,,,,,,,,,,,,,,,,,,,,,,,,,,,,,,,,,,,,,109.13369290000992,None,109.13369290000992,None,110.33237850001024,None,109.13369290000992,None,"[0.0, 0.0, 0.0, 0.0, 0.0, 0.0, 0.0, 0.0, 0.0, 0.0, 0.0, 0.0, 0.0, 0.0, 0.0, 0.0, 0.0, 0.0, 0.0, 0.0, 0.0, 0.0, 0.0, 0.0, 0.0, 0.0, 0.0, 0.0, 0.0, 0.0, 0.0, 0.0, 0.0, 0.0, 0.0, 0.0, 0.0, 0.0, 0.0, 0.0, 0.0, 0.0, 0.0, 0.0, 0.0, 0.0, 0.0, 0.0, 0.0, 0.0, 0.0, 0.0, 0.0, 0.0, 0.0, 0.0, 0.0, 0.0, 0.0, 0.0, 0.0, 0.0, 0.0, 0.0, 0.0, 0.0, 0.0, 0.0, 0.0, 0.0, 0.0, 0.0, 0.0, 0.0, 0.003703703703703704, 0.03148148148148148, 0.049074074074074076, 0.08148148148148149, 0.11481481481481481, 0.14629629629629629, 0.17592592592592593, 0.20925925925925926, 0.24814814814814815, 0.2777777777777778, 0.30925925925925923, 0.3472222222222222, 0.37777777777777777]","[0.0, 0.0, 0.0, 0.0, 0.0, 0.0, 0.0, 0.0, 0.0, 0.0, 0.0, 0.0, 0.0, 0.0, 0.0, 0.0, 0.0, 0.0, 0.0, 0.0, 0.0, 0.0, 0.0, 0.0, 0.0, 0.0, 0.0, 0.0, 0.0, 0.0, 0.0, 0.0, 0.0, 0.0, 0.0, 0.0, 0.0, 0.0, 0.0, 0.0, 0.0, 0.0, 0.0, 0.0, 0.0, 0.0, 0.0, 0.0, 0.0, 0.0, 0.0, 0.0, 0.0, 0.0, 0.0, 0.0, 0.0, 0.0, 0.0, 0.0, 0.0, 0.0, 0.0, 0.0, 0.0, 0.0, 0.0, 0.0, 0.0, 0.0, 0.0, 0.0, 0.0, 0.0, 0.000925925925925926, 0.004629629629629629, 0.010185185185185186, 0.022222222222222223, 0.03333333333333333, 0.04814814814814815, 0.06111111111111111, 0.07777777777777778, 0.09537037037037037, 0.11018518518518519, 0.12407407407407407, 0.14537037037037037, 0.16574074074074074]","[0, 0, 0, 0, 0, 0, 0, 0, 0, 0, 0, 0, 0, 0, 0, 0, 0, 0, 0, 0, 0, 0, 0, 0, 0, 0, 0, 0, 0, 0, 0, 0, 0, 0, 0, 0, 0, 0, 0, 0, 0, 0, 0, 0, 0, 0, 0, 0, 0, 0, 0, 0, 0, 0, 0, 0, 0, 0, 0, 1, 1, 1, 1, 1, 1, 1, 1, 1, 1, 1, 1, 1, 1, 1, 1, 1, 1, 1, 1, 1, 1, 1, 1, 1, 1, 1, 1]","[0, 0, 0, 0, 0, 0, 0, 0, 0, 0, 0, 0, 0, 0, 0, 0, 0, 0, 0, 0, 0, 0, 0, 0, 0, 0, 0, 0, 0, 0, 0, 0, 0, 0, 0, 0, 0, 0, 0, 0, 0, 0, 0, 0, 0, 0, 0, 0, 0, 0, 0, 0, 0, 0, 0, 0, 0, 0, 0, 0, 0, 0, 0, 0, 0, 0, 0, 0, 0, 0, 0, 0, 0, 0, 0, 0, 0, 0, 0, 0, 0, 0, 0, 0, 0, 0, 0]","[0, 0, 0, 0, 0, 0, 0, 0, 0, 0, 0, 0, 0, 0, 0, 0, 0, 0, 0, 0, 0, 0, 0, 0, 0, 0, 0, 0, 0, 0, 0, 0, 0, 0, 0, 0, 0, 0, 0, 0, 0, 0, 0, 0, 0, 0, 0, 0, 0, 0, 0, 0, 0, 0, 0, 0, 0, 0, 0, 0, 0, 0, 0, 0, 0, 0, 0, 0, 0, 0, 0, 0, 0, 0, 0, 0, 0, 0, 0, 0, 0, 0, 0, 0, 0, 0, 0]","[0.0014282999909482896, 0.021839599998202175, 0.03858349999063648, 0.05507970000326168, 0.08075649999955203, 0.09923849999904633, 0.11677389999385923, 0.14300070000172127, 0.1627027999929851, 0.1817527999955928, 0.20141749999311287, 0.2163192000007257, 0.24372339999536052, 0.2630802999919979, 0.2822634000040125, 0.2996300999948289, 0.3171159999910742, 0.33467409999866504, 0.35968249999859836, 0.38049389999650884, 0.40970190000371076, 0.4310358999937307, 0.4496189999917988, 0.4662458999955561, 0.48256049999326933, 0.5090459999919403, 0.5288852999947267, 0.549739199996111, 0.5651096999936271, 0.5926246000017272, 0.6117975999950431, 0.6315515000023879, 0.6507749000011245, 0.6763041999947745, 0.6958748000033665, 0.7146886999980779, 0.7328560000023572, 0.7497622999944724, 0.765966799997841, 0.7935982999915723, 0.8137225999962538, 0.8336449999915203, 0.8595330999960424, 0.8792180000018561, 0.8985834999912186, 0.9166102000017418, 0.9322435999929439, 0.9503164999914588, 0.9661176999943564, 0.9828793000051519, 1.0090365999931237, 1.029645899994648, 1.050005400000373, 1.0658355000050506, 1.0919454999966547, 1.112600399996154, 1.13180449999345, 1.15062780000153, 1.1654032999940682, 1.1938362999935634, 1.2127196999936132, 1.2307520000031218, 1.2497468999936245, 1.2655195999977877, 1.2823389999975916, 1.298628299991833, 1.3259209999960149, 1.3455230999970809, 1.3647773999982746, 1.3822322999913013, 1.3981739000009838, 1.425144900000305, 1.444940699992003, 1.463457499994547, 1.4839982999983476, 1.5014369999989867, 1.5267875999998068, 1.546617600004538, 1.5667207999940729, 1.5845523000025423, 1.6098878999910085, 1.6296739999961574, 1.6500531999918167, 1.6697437999973772, 1.6942248999985168, 1.713142099994002, 1.7328910999931395]",1.224340779997874,None,112.1147581999976,None,112.1147581999976,None,112.1147581999976,None,112.1147581999976,112.61361790000228,112.1147581999976,None,,,,,,,,,,,,,,,,,,,,,,,,,,,,,,,0,001,2020_Oct_14_1335,vm_20xx,2020.2.4,59.62542118144081,
0.3,-0.3,0,,,,,,,,,0,0,0,0,0,9,9,7,,,,,,,,,,,,,,,,,,,,,,,,,,,,,,,,,,,,,,,,,,,113.11513210000703,None,113.11513210000703,None,114.42886020000151,None,113.11513210000703,None,"[0.0, 0.0, 0.0, 0.0, 0.0, 0.0, 0.0, 0.0, 0.0, 0.0, 0.0, 0.0, 0.0, 0.0, 0.0, 0.0, 0.0, 0.0, 0.0, 0.0, 0.0, 0.0, 0.0, 0.0, 0.0, 0.0, 0.0, 0.0, 0.0, 0.0, 0.0, 0.0, 0.0, 0.0, 0.0, 0.0, 0.0, 0.0, 0.0, 0.0, 0.0, 0.0, 0.0, 0.0, 0.0, 0.0, 0.002777777777777778, 0.026851851851851852, 0.040740740740740744, 0.06018518518518518, 0.09166666666666666, 0.11851851851851852, 0.15833333333333333, 0.17685185185185184, 0.20277777777777778, 0.23148148148148148, 0.2490740740740741, 0.26851851851851855, 0.2814814814814815, 0.29814814814814816, 0.31203703703703706]","[0.0, 0.0, 0.0, 0.0, 0.0, 0.0, 0.0, 0.0, 0.0, 0.0, 0.0, 0.0, 0.0, 0.0, 0.0, 0.0, 0.0, 0.0, 0.0, 0.0, 0.0, 0.0, 0.0, 0.0, 0.0, 0.0, 0.0, 0.0, 0.0, 0.0, 0.0, 0.0, 0.0, 0.0, 0.0, 0.0, 0.0, 0.0, 0.0, 0.0, 0.0, 0.0, 0.0, 0.0, 0.0, 0.0, 0.003703703703703704, 0.03148148148148148, 0.044444444444444446, 0.06574074074074074, 0.09722222222222222, 0.12129629629629629, 0.15462962962962962, 0.16944444444444445, 0.19074074074074074, 0.2064814814814815, 0.2175925925925926, 0.2324074074074074, 0.23981481481481481, 0.25277777777777777, 0.262037037037037]","[0, 0, 0, 0, 0, 0, 0, 0, 0, 0, 0, 0, 0, 0, 0, 0, 0, 0, 0, 0, 0, 0, 0, 0, 0, 0, 0, 1, 1, 1, 1, 1, 1, 1, 1, 1, 1, 1, 1, 1, 1, 1, 1, 1, 1, 1, 1, 1, 1, 1, 1, 1, 1, 1, 1, 1, 1, 1, 1, 1, 1]","[0, 0, 0, 0, 0, 0, 0, 0, 0, 0, 0, 0, 0, 0, 0, 0, 0, 0, 0, 0, 0, 0, 0, 0, 0, 0, 0, 0, 0, 0, 0, 0, 0, 0, 0, 0, 0, 0, 0, 0, 0, 0, 0, 0, 0, 0, 0, 0, 0, 0, 0, 0, 0, 0, 0, 0, 0, 0, 0, 0, 0]","[0, 0, 0, 0, 0, 0, 0, 0, 0, 0, 0, 0, 0, 0, 0, 0, 0, 0, 0, 0, 0, 0, 0, 0, 0, 0, 0, 0, 0, 0, 0, 0, 0, 0, 0, 0, 0, 0, 0, 0, 0, 0, 0, 0, 0, 0, 0, 0, 0, 0, 0, 0, 0, 0, 0, 0, 0, 0, 0, 0, 0]","[0.0005144999886397272, 0.017381699988618493, 0.04408019999391399, 0.06404109999130014, 0.084097799990559, 0.09945439999864902, 0.1256085999921197, 0.15156679999199696, 0.17271839999011718, 0.19708230000105686, 0.21850269999413285, 0.23714869999093935, 0.25453529998776503, 0.2790517999965232, 0.29761449999932665, 0.3159955000010086, 0.3339110999950208, 0.34959659999003634, 0.37657019999460317, 0.3967543999897316, 0.4152146999986144, 0.4328300999914063, 0.45021059999999125, 0.4770245999970939, 0.49641689998679794, 0.5158271999971475, 0.5347292999940692, 0.5642841999942902, 0.5836745999986306, 0.6009236999962013, 0.6188480999990134, 0.6422879999881843, 0.6621558999904664, 0.6810928999911994, 0.69901279998885, 0.7159262999921339, 0.741941999993287, 0.7613596000010148, 0.7787896999943769, 0.7983710999978939, 0.8159949999972014, 0.8322875999874668, 0.8485789999976987, 0.8670159999892348, 0.8829030999913812, 0.9090725999994902, 0.930386299995007, 0.9514113999903202, 0.9687129999947501, 0.9918728999909945, 1.0122649999975692, 1.0325690999889048, 1.0526275999873178, 1.0804387999960454, 1.0984705000009853, 1.1175917999935336, 1.1357466999907047, 1.159439899987774, 1.1787551999877905, 1.1990497999940999, 1.2172427999903448]",1.336481480000657,None,115.69596510000702,None,115.69596510000702,None,115.69596510000702,None,115.69596510000702,116.2078593000042,115.69596510000702,None,,,,,,,,,,,,,,,,,,,,,,,,,,,,,,,0,001,2020_Oct_14_1335,vm_20xx,2020.2.4,59.62542118144081,
-0.3,0.3,0,,,,,,,,,0,0,0,0,0,10,10,1,,,,,,,,,,,,,,,,,,,,,,,,,,,,,,,,,,,,,,,,,,,116.70144750000327,None,116.70144750000327,None,117.36923700000625,None,116.70144750000327,None,"[0.0, 0.0, 0.0, 0.0, 0.0, 0.0, 0.0, 0.0, 0.0, 0.0, 0.0, 0.0, 0.0, 0.0, 0.0, 0.0, 0.0, 0.0, 0.0, 0.0, 0.0, 0.0, 0.0, 0.0, 0.0, 0.0, 0.0, 0.0, 0.0, 0.0, 0.0, 0.0, 0.0, 0.0, 0.0, 0.0, 0.0, 0.0, 0.0, 0.0, 0.0, 0.0, 0.0, -0.002777777777777778, -0.022222222222222223, -0.03888888888888889, -0.06388888888888888, -0.08333333333333333, -0.10185185185185185, -0.1425925925925926, -0.17222222222222222, -0.1925925925925926, -0.2222222222222222, -0.2462962962962963, -0.26666666666666666]","[0.0, 0.0, 0.0, 0.0, 0.0, 0.0, 0.0, 0.0, 0.0, 0.0, 0.0, 0.0, 0.0, 0.0, 0.0, 0.0, 0.0, 0.0, 0.0, 0.0, 0.0, 0.0, 0.0, 0.0, 0.0, 0.0, 0.0, 0.0, 0.0, 0.0, 0.0, 0.0, 0.0, 0.0, 0.0, 0.0, 0.0, 0.0, 0.0, 0.0, 0.0, 0.0, 0.0, -0.004629629629629629, -0.02962962962962963, -0.05185185185185185, -0.08333333333333333, -0.1037037037037037, -0.12314814814814815, -0.16666666666666666, -0.1925925925925926, -0.21388888888888888, -0.24166666666666667, -0.2611111111111111, -0.2833333333333333]","[0, 0, 0, 0, 0, 0, 0, 0, 0, 0, 0, 0, 0, 0, 0, 0, 0, 0, 0, 0, 0, 0, 0, 0, 0, 0, 0, 0, 0, 1, 1, 1, 1, 1, 1, 1, 1, 1, 1, 1, 1, 1, 1, 1, 1, 1, 1, 1, 1, 1, 1, 1, 1, 1, 1]","[0, 0, 0, 0, 0, 0, 0, 0, 0, 0, 0, 0, 0, 0, 0, 0, 0, 0, 0, 0, 0, 0, 0, 0, 0, 0, 0, 0, 0, 0, 0, 0, 0, 0, 0, 0, 0, 0, 0, 0, 0, 0, 0, 0, 0, 0, 0, 0, 0, 0, 0, 0, 0, 0, 0]","[0, 0, 0, 0, 0, 0, 0, 0, 0, 0, 0, 0, 0, 0, 0, 0, 0, 0, 0, 0, 0, 0, 0, 0, 0, 0, 0, 0, 0, 0, 0, 0, 0, 0, 0, 0, 0, 0, 0, 0, 0, 0, 0, 0, 0, 0, 0, 0, 0, 0, 0, 0, 0, 0, 0]","[0.0008614999969722703, 0.021716699993703514, 0.039680999994743615, 0.055988499996601604, 0.07341849998920225, 0.10081709999940358, 0.11975319999328349, 0.13902279999456368, 0.15642970000044443, 0.1728160999919055, 0.19021699999575503, 0.21684489998733625, 0.2359866999904625, 0.2560825999971712, 0.2733124999940628, 0.2896176999929594, 0.30695709999417886, 0.3334321999864187, 0.35300949998782016, 0.37180669998633675, 0.38934099998732563, 0.40850119999959134, 0.4326407999906223, 0.4520623999997042, 0.4705524999881163, 0.48934459999145474, 0.5064493999961996, 0.5321097999985795, 0.5526804999972228, 0.5745880999893416, 0.5898277999949642, 0.6154383999964921, 0.6343140999961179, 0.6534315999888349, 0.6719477000006009, 0.6891965999966487, 0.7060895999893546, 0.7230772999901092, 0.7391094999911729, 0.7558793999924092, 0.7815501999866683, 0.8018321999988984, 0.8210647999949288, 0.8393132999917725, 0.8563042999885511, 0.873559399988153, 0.8922469999961322, 0.9102937999996357, 0.936458500000299, 0.9558791999879759, 0.9727748000004794, 1.0009288000001106, 1.0204612999950768, 1.039907200000016, 1.0596649999934016]",0.6903030800021952,None,118.47696460000589,None,118.47696460000589,None,118.47696460000589,None,118.47696460000589,119.00076019999688,118.47696460000589,None,,,,,,,,,,,,,,,,,,,,,,,,,,,,,,,0,001,2020_Oct_14_1335,vm_20xx,2020.2.4,59.62542118144081,
0.3,-0.3,0,,,,,,,,,0,0,0,0,0,11,11,11,,,,,,,,,,,,,,,,,,,,,,,,,,,,,,,,,,,,,,,,,,,119.47682730000815,None,119.47682730000815,None,119.99985639999795,None,119.47682730000815,None,"[0.0, 0.0, 0.0, 0.0, 0.0, 0.0, 0.0, 0.0, 0.0, 0.0, 0.0, 0.0, 0.0, 0.0, 0.0, 0.0, 0.0, 0.0, 0.0, 0.0, 0.0, 0.0, 0.0, 0.0, 0.0, 0.0, 0.0, 0.0, 0.0, 0.0, 0.0, 0.0, 0.0, 0.0, 0.0, 0.0, 0.0, 0.0, 0.0, 0.0, 0.0, 0.0, 0.0, 0.006481481481481481, 0.04814814814814815, 0.08333333333333333, 0.12407407407407407, 0.17407407407407408, 0.21203703703703702, 0.24722222222222223, 0.2712962962962963, 0.2861111111111111, 0.31296296296296294, 0.32407407407407407]","[0.0, 0.0, 0.0, 0.0, 0.0, 0.0, 0.0, 0.0, 0.0, 0.0, 0.0, 0.0, 0.0, 0.0, 0.0, 0.0, 0.0, 0.0, 0.0, 0.0, 0.0, 0.0, 0.0, 0.0, 0.0, 0.0, 0.0, 0.0, 0.0, 0.0, 0.0, 0.0, 0.0, 0.0, 0.0, 0.0, 0.0, 0.0, 0.0, 0.0, 0.0, 0.0, 0.0, 0.005555555555555556, 0.04259259259259259, 0.07314814814814814, 0.10925925925925926, 0.15648148148148147, 0.18333333333333332, 0.20462962962962963, 0.22037037037037038, 0.23148148148148148, 0.2462962962962963, 0.25277777777777777]","[0, 0, 0, 0, 0, 0, 0, 0, 0, 0, 0, 0, 0, 0, 0, 0, 0, 0, 0, 0, 0, 0, 0, 0, 0, 0, 0, 0, 0, 0, 1, 1, 1, 1, 1, 1, 1, 1, 1, 1, 1, 1, 1, 1, 1, 1, 1, 1, 1, 1, 1, 1, 1, 1]","[0, 0, 0, 0, 0, 0, 0, 0, 0, 0, 0, 0, 0, 0, 0, 0, 0, 0, 0, 0, 0, 0, 0, 0, 0, 0, 0, 0, 0, 0, 0, 0, 0, 0, 0, 0, 0, 0, 0, 0, 0, 0, 0, 0, 0, 0, 0, 0, 0, 0, 0, 0, 0, 0]","[0, 0, 0, 0, 0, 0, 0, 0, 0, 0, 0, 0, 0, 0, 0, 0, 0, 0, 0, 0, 0, 0, 0, 0, 0, 0, 0, 0, 0, 0, 0, 0, 0, 0, 0, 0, 0, 0, 0, 0, 0, 0, 0, 0, 0, 0, 0, 0, 0, 0, 0, 0, 0, 0]","[0.0005030999891459942, 0.020620099996449426, 0.0397880999953486, 0.05680759999086149, 0.074027999988175, 0.10017659999721218, 0.1239101999963168, 0.14055999999982305, 0.15937149999081157, 0.17608639999525622, 0.20064529999217484, 0.22277849999954924, 0.2423382999986643, 0.2613340999960201, 0.2863572999922326, 0.30681199999526143, 0.3226536000001943, 0.3490556999895489, 0.3692197999916971, 0.38776439998764545, 0.4063266999874031, 0.4234050999948522, 0.4503660999907879, 0.4709574999869801, 0.4896338999969885, 0.5162773999909405, 0.5359867999941343, 0.5543570000008913, 0.5732704999973066, 0.6001222999911988, 0.6208409999962896, 0.6390604999905918, 0.656718300000648, 0.6733041999978013, 0.6895623999880627, 0.7062038000003668, 0.7330799999908777, 0.7527219999901718, 0.7726721999933943, 0.7899954999884358, 0.8061105999950087, 0.8330851999926381, 0.8519235999992816, 0.8716386000014609, 0.8918625999940559, 0.9090736999933142, 0.9341374999930849, 0.9558174999983748, 0.9755062999902293, 0.9967831999965711, 1.0178673999907915, 1.0382573999959277, 1.056795399999828, 1.074243299997761]",0.5463858800067101,None,121.12176039999758,None,121.12176039999758,None,121.12176039999758,None,121.12176039999758,121.63533270001062,121.12176039999758,None,,,,,,,,,,,,,,,,,,,,,,,,,,,,,,,0,001,2020_Oct_14_1335,vm_20xx,2020.2.4,59.62542118144081,
-0.3,0.3,0,,,,,,,,,0,0,0,0,0,12,12,5,,,,,,,,,,,,,,,,,,,,,,,,,,,,,,,,,,,,,,,,,,,122.12126670000725,None,122.12126670000725,None,123.42017369999667,None,122.12126670000725,None,"[0.0, 0.0, 0.0, 0.0, 0.0, 0.0, 0.0, 0.0, 0.0, 0.0, 0.0, 0.0, 0.0, 0.0, 0.0, 0.0, 0.0, 0.0, 0.0, 0.0, 0.0, 0.0, 0.0, 0.0, 0.0, 0.0, 0.0, 0.0, 0.0, 0.0, -0.001851851851851852, -0.022222222222222223, -0.03518518518518519, -0.05092592592592592, -0.09074074074074075, -0.11574074074074074, -0.13148148148148148, -0.1537037037037037, -0.1675925925925926, -0.18703703703703703, -0.19907407407407407, -0.21296296296296297, -0.21851851851851853, -0.23333333333333334, -0.24814814814814815]","[0.0, 0.0, 0.0, 0.0, 0.0, 0.0, 0.0, 0.0, 0.0, 0.0, 0.0, 0.0, 0.0, 0.0, 0.0, 0.0, 0.0, 0.0, 0.0, 0.0, 0.0, 0.0, 0.0, 0.0, 0.0, 0.0, 0.0, 0.0, 0.0, 0.0, -0.003703703703703704, -0.03796296296296296, -0.058333333333333334, -0.075, -0.12685185185185185, -0.15462962962962962, -0.175, -0.20462962962962963, -0.2222222222222222, -0.24444444444444444, -0.25925925925925924, -0.28055555555555556, -0.2916666666666667, -0.31203703703703706, -0.3333333333333333]","[0, 0, 0, 0, 0, 0, 0, 0, 0, 0, 0, 0, 0, 0, 0, 0, 0, 0, 1, 1, 1, 1, 1, 1, 1, 1, 1, 1, 1, 1, 1, 1, 1, 1, 1, 1, 1, 1, 1, 1, 1, 1, 1, 1, 1]","[0, 0, 0, 0, 0, 0, 0, 0, 0, 0, 0, 0, 0, 0, 0, 0, 0, 0, 0, 0, 0, 0, 0, 0, 0, 0, 0, 0, 0, 0, 0, 0, 0, 0, 0, 0, 0, 0, 0, 0, 0, 0, 0, 0, 0]","[0, 0, 0, 0, 0, 0, 0, 0, 0, 0, 0, 0, 0, 0, 0, 0, 0, 0, 0, 0, 0, 0, 0, 0, 0, 0, 0, 0, 0, 0, 0, 0, 0, 0, 0, 0, 0, 0, 0, 0, 0, 0, 0, 0, 0]","[0.0004937000048812479, 0.02714140000171028, 0.04858139999851119, 0.0662949999968987, 0.08394510000653099, 0.11092780000763014, 0.13203900000371505, 0.1506253999978071, 0.16675980000582058, 0.18303939999896102, 0.19994770000630524, 0.22725340000761207, 0.24906410000403412, 0.2668287999986205, 0.29374680000182707, 0.31296999999904074, 0.33273860000190325, 0.35011330000997987, 0.37949289999960456, 0.39762380000320263, 0.41576289999648, 0.4331317000032868, 0.44996569999784697, 0.47545860000536777, 0.4955536000052234, 0.5162799999961862, 0.5333248000097228, 0.5499173999996856, 0.5771386999986134, 0.5987253000057535, 0.6205385000066599, 0.6365739000029862, 0.657188800003496, 0.6799453999992693, 0.7017763000039849, 0.7180980999983149, 0.7450600000011036, 0.7634871000045678, 0.7833062999998219, 0.800950400007423, 0.819530599997961, 0.8372122000000672, 0.8625693000067258, 0.8817112999968231, 0.9010702000086894]",1.3209498800133588,None,124.36789500000305,None,124.36789500000305,None,124.36789500000305,None,124.36789500000305,124.88548730000912,124.36789500000305,None,,,,,,,,,,,,,,,,,,,,,,,,,,,,,,,0,001,2020_Oct_14_1335,vm_20xx,2020.2.4,59.62542118144081,
