target_x,target_y,aiming_trials.thisN,aim report,aim_swipe_mouse.x,aim_swipe_mouse.y,p_id
0.3,-0.3,0.0,67.0,"[0.0, 0.0, 0.0, 0.0, 0.0, 0.0, 0.0, 0.0, 0.0, 0.0, 0.0, 0.0, 0.0, 0.0, 0.0, 0.0, 0.0, 0.0, 0.0, 0.0, 0.0, 0.0, 0.0, 0.0, 0.0, 0.0, 0.0, 0.0, 0.0, 0.0, 0.0, 0.0, 0.0, 0.0, 0.0, 0.0, 0.0, 0.0, 0.0, 0.0, 0.0, 0.0, 0.0, 0.0, 0.0, -0.26851851851851855, -0.2712962962962963, -0.2722222222222222, -0.2722222222222222, -0.2712962962962963, -0.26851851851851855, -0.26481481481481484, -0.2611111111111111, -0.2574074074074074, -0.25555555555555554, -0.2537037037037037, -0.2537037037037037, -0.25092592592592594, -0.2490740740740741, -0.24722222222222223, -0.24722222222222223, -0.24722222222222223, -0.24722222222222223, -0.24722222222222223, -0.24722222222222223, -0.24722222222222223, -0.24722222222222223, -0.24722222222222223, -0.24722222222222223, -0.24722222222222223, -0.24722222222222223, -0.24722222222222223, -0.24722222222222223, -0.24722222222222223, -0.24722222222222223, -0.2462962962962963]","[0.0, 0.0, 0.0, 0.0, 0.0, 0.0, 0.0, 0.0, 0.0, 0.0, 0.0, 0.0, 0.0, 0.0, 0.0, 0.0, 0.0, 0.0, 0.0, 0.0, 0.0, 0.0, 0.0, 0.0, 0.0, 0.0, 0.0, 0.0, 0.0, 0.0, 0.0, 0.0, 0.0, 0.0, 0.0, 0.0, 0.0, 0.0, 0.0, 0.0, 0.0, 0.0, 0.0, 0.0, 0.0, 0.23055555555555557, 0.2351851851851852, 0.23703703703703705, 0.23703703703703705, 0.23425925925925925, 0.2324074074074074, 0.22962962962962963, 0.22592592592592592, 0.2222222222222222, 0.22037037037037038, 0.21944444444444444, 0.21851851851851853, 0.21944444444444444, 0.22037037037037038, 0.2222222222222222, 0.2222222222222222, 0.2222222222222222, 0.2222222222222222, 0.2222222222222222, 0.2222222222222222, 0.2222222222222222, 0.2222222222222222, 0.2222222222222222, 0.2222222222222222, 0.2222222222222222, 0.2222222222222222, 0.2222222222222222, 0.2222222222222222, 0.2222222222222222, 0.2222222222222222, 0.22962962962962963]",641
-0.3,0.3,1.0,45.0,"[0.0, 0.0, 0.0, 0.0, 0.0, 0.0, 0.0, 0.0, 0.0, 0.0, 0.0, 0.0, 0.0, 0.0, 0.0, 0.0, 0.0, 0.0, 0.0, 0.0, 0.0, 0.0, 0.0, 0.0, 0.0, 0.0, 0.0, 0.0, 0.0, 0.0, 0.0, 0.0, 0.0, 0.0, 0.0, -0.24074074074074073, -0.2324074074074074, -0.2212962962962963, -0.2101851851851852, -0.1935185185185185, -0.17962962962962964, -0.16666666666666666, -0.16111111111111112, -0.15925925925925927, -0.15925925925925927, -0.15925925925925927, -0.24351851851851852]","[0.0, 0.0, 0.0, 0.0, 0.0, 0.0, 0.0, 0.0, 0.0, 0.0, 0.0, 0.0, 0.0, 0.0, 0.0, 0.0, 0.0, 0.0, 0.0, 0.0, 0.0, 0.0, 0.0, 0.0, 0.0, 0.0, 0.0, 0.0, 0.0, 0.0, 0.0, 0.0, 0.0, 0.0, 0.0, -0.012962962962962963, -0.018518518518518517, -0.024074074074074074, -0.02962962962962963, -0.03518518518518519, -0.03796296296296296, -0.03981481481481482, -0.03981481481481482, -0.03981481481481482, -0.03981481481481482, -0.03981481481481482, -0.06018518518518518]",641
0.3,-0.3,2.0,0.0,"[0.0, 0.0, 0.0, 0.0, 0.0, 0.0, 0.0, 0.0, 0.0, 0.0, 0.0, 0.0, 0.0, 0.0, 0.0, 0.0, 0.0, 0.0, 0.0, 0.0, 0.0, 0.0, 0.0, 0.0, 0.0, 0.0, 0.0, 0.0, 0.0, 0.0, 0.0, 0.0, 0.0, 0.0, 0.0, 0.0, 0.0, 0.0, 0.0, 0.0, 0.0, 0.0, 0.0, 0.0, 0.0, 0.0, 0.0, 0.0, -0.5222222222222223, -0.5259259259259259, -0.5333333333333333, -0.5361111111111111, -0.5361111111111111, -0.5361111111111111, -0.5361111111111111, -0.5361111111111111]","[0.0, 0.0, 0.0, 0.0, 0.0, 0.0, 0.0, 0.0, 0.0, 0.0, 0.0, 0.0, 0.0, 0.0, 0.0, 0.0, 0.0, 0.0, 0.0, 0.0, 0.0, 0.0, 0.0, 0.0, 0.0, 0.0, 0.0, 0.0, 0.0, 0.0, 0.0, 0.0, 0.0, 0.0, 0.0, 0.0, 0.0, 0.0, 0.0, 0.0, 0.0, 0.0, 0.0, 0.0, 0.0, 0.0, 0.0, 0.0, -0.05648148148148148, -0.05462962962962963, -0.05092592592592592, -0.049074074074074076, -0.049074074074074076, -0.049074074074074076, -0.049074074074074076, -0.04814814814814815]",641
-0.3,0.3,3.0,44.0,"[0.0, 0.0, 0.0, 0.0, 0.0, 0.0, 0.0, 0.0, 0.0, 0.0, 0.0, 0.0, 0.0, 0.0, 0.0, 0.0, 0.0, 0.0, 0.0, 0.0, 0.0, 0.0, 0.0, 0.0, 0.0, 0.0, 0.0, 0.0, 0.0, 0.0, 0.0, 0.0, 0.0, 0.0, 0.0, 0.0, 0.0, 0.0, 0.0, 0.0, 0.0, 0.0, 0.0, 0.0, 0.0, 0.0, 0.0, 0.0, 0.0, -0.05648148148148148, -0.053703703703703705, -0.04537037037037037, -0.03425925925925926, -0.022222222222222223, -0.011111111111111112, -0.000925925925925926, 0.007407407407407408, 0.012037037037037037, 0.012037037037037037, 0.006481481481481481, -0.006481481481481481, -0.03148148148148148, -0.06388888888888888, -0.09814814814814815, -0.09814814814814815, -0.09814814814814815, -0.09814814814814815, -0.09814814814814815, -0.09814814814814815, -0.09814814814814815, -0.09814814814814815, -0.41574074074074074, -0.8574074074074074, -0.8861111111111111, -0.8861111111111111, -0.8861111111111111, -0.8861111111111111, -0.8861111111111111, -0.8861111111111111, -0.8861111111111111, -0.8861111111111111, -0.8861111111111111, -0.8861111111111111, -0.8861111111111111, -0.8861111111111111, -0.8861111111111111, -0.8861111111111111, -0.8861111111111111, -0.8861111111111111, -0.8861111111111111, -0.8861111111111111, -0.8861111111111111, 0.03981481481481482, 0.05740740740740741, 0.06388888888888888, 0.06388888888888888, 0.06388888888888888, 0.06388888888888888, 0.06388888888888888, 0.005555555555555556, -0.2740740740740741]","[0.0, 0.0, 0.0, 0.0, 0.0, 0.0, 0.0, 0.0, 0.0, 0.0, 0.0, 0.0, 0.0, 0.0, 0.0, 0.0, 0.0, 0.0, 0.0, 0.0, 0.0, 0.0, 0.0, 0.0, 0.0, 0.0, 0.0, 0.0, 0.0, 0.0, 0.0, 0.0, 0.0, 0.0, 0.0, 0.0, 0.0, 0.0, 0.0, 0.0, 0.0, 0.0, 0.0, 0.0, 0.0, 0.0, 0.0, 0.0, 0.0, -0.14074074074074075, -0.14074074074074075, -0.1398148148148148, -0.1388888888888889, -0.13703703703703704, -0.13425925925925927, -0.13148148148148148, -0.12685185185185185, -0.12129629629629629, -0.11666666666666667, -0.11203703703703703, -0.10833333333333334, -0.10648148148148148, -0.10648148148148148, -0.10925925925925926, -0.10925925925925926, -0.10925925925925926, -0.10925925925925926, -0.10925925925925926, -0.10925925925925926, -0.10925925925925926, -0.10925925925925926, -0.12685185185185185, -0.0962962962962963, -0.09166666666666666, -0.09166666666666666, -0.09166666666666666, -0.09166666666666666, -0.09166666666666666, -0.09166666666666666, -0.09166666666666666, -0.09166666666666666, -0.09166666666666666, -0.09166666666666666, -0.09166666666666666, -0.09166666666666666, -0.09166666666666666, -0.09166666666666666, -0.09166666666666666, -0.09166666666666666, -0.09166666666666666, -0.09166666666666666, -0.09166666666666666, -0.017592592592592594, -0.019444444444444445, -0.020370370370370372, -0.020370370370370372, -0.020370370370370372, -0.020370370370370372, -0.020370370370370372, -0.012962962962962963, 0.019444444444444445]",641
-0.3,0.3,4.0,43.0,"[0.0, 0.0, 0.0, 0.0, 0.0, 0.0, 0.0, 0.0, 0.0, 0.0, 0.0, 0.0, 0.0, 0.0, 0.0, 0.0, 0.0, 0.0, 0.0, 0.0, 0.0, 0.0, 0.0, 0.0, 0.0, 0.0, 0.0, 0.0, 0.0, 0.0, 0.0, 0.0, 0.0, 0.0, 0.0, 0.0, 0.0, 0.0, 0.0, 0.0, 0.0, 0.0, 0.0, 0.0, -0.03888888888888889, -0.03888888888888889, -0.04351851851851852, -0.046296296296296294, -0.046296296296296294, -0.046296296296296294, -0.09722222222222222, -0.23148148148148148]","[0.0, 0.0, 0.0, 0.0, 0.0, 0.0, 0.0, 0.0, 0.0, 0.0, 0.0, 0.0, 0.0, 0.0, 0.0, 0.0, 0.0, 0.0, 0.0, 0.0, 0.0, 0.0, 0.0, 0.0, 0.0, 0.0, 0.0, 0.0, 0.0, 0.0, 0.0, 0.0, 0.0, 0.0, 0.0, 0.0, 0.0, 0.0, 0.0, 0.0, 0.0, 0.0, 0.0, 0.0, -0.10277777777777777, -0.1037037037037037, -0.1037037037037037, -0.1037037037037037, -0.1037037037037037, -0.1037037037037037, -0.10555555555555556, -0.09074074074074075]",641
-0.3,-0.3,5.0,68.0,"[0.0, 0.0, 0.0, 0.0, 0.0, 0.0, 0.0, 0.0, 0.0, 0.0, 0.0, 0.0, 0.0, 0.0, 0.0, 0.0, 0.0, 0.0, 0.0, 0.0, 0.0, 0.0, 0.0, 0.0, -0.4046296296296296, -0.4, -0.3972222222222222, -0.38981481481481484, -0.38425925925925924, -0.3787037037037037, -0.37037037037037035, -0.3611111111111111, -0.3509259259259259, -0.3398148148148148, -0.3296296296296296, -0.3194444444444444, -0.30925925925925923, -0.29814814814814816, -0.2898148148148148, -0.2824074074074074, -0.275, -0.26851851851851855, -0.2638888888888889, -0.2601851851851852, -0.25555555555555554, -0.25092592592592594, -0.2490740740740741, -0.2462962962962963, -0.24444444444444444, -0.24351851851851852, -0.24351851851851852, -0.24444444444444444, -0.24537037037037038, -0.24537037037037038, -0.24537037037037038, -0.24537037037037038, -0.24537037037037038, -0.24537037037037038]","[0.0, 0.0, 0.0, 0.0, 0.0, 0.0, 0.0, 0.0, 0.0, 0.0, 0.0, 0.0, 0.0, 0.0, 0.0, 0.0, 0.0, 0.0, 0.0, 0.0, 0.0, 0.0, 0.0, 0.0, 0.1037037037037037, 0.10462962962962963, 0.10555555555555556, 0.10555555555555556, 0.10925925925925926, 0.11481481481481481, 0.1175925925925926, 0.1175925925925926, 0.11666666666666667, 0.11574074074074074, 0.11481481481481481, 0.11388888888888889, 0.11296296296296296, 0.11388888888888889, 0.11666666666666667, 0.12037037037037036, 0.12222222222222222, 0.125, 0.12777777777777777, 0.13333333333333333, 0.13796296296296295, 0.14537037037037037, 0.15, 0.15555555555555556, 0.15925925925925927, 0.16574074074074074, 0.17037037037037037, 0.17407407407407408, 0.17685185185185184, 0.17685185185185184, 0.17685185185185184, 0.17685185185185184, 0.17685185185185184, 0.16111111111111112]",641
0.3,0.3,6.0,0.0,"[0.0, 0.0, 0.0, 0.0, 0.0, 0.0, 0.0, 0.0, 0.0, 0.0, 0.0, 0.0, 0.0, 0.0, 0.0, 0.0, 0.0, 0.0, 0.0, 0.0, 0.0, 0.0, 0.0, 0.0, 0.0, 0.0, 0.0, 0.0, 0.0, 0.0, 0.0, 0.0, 0.0, 0.0, 0.0, 0.0, 0.0, 0.0, 0.0, 0.0, 0.0, 0.0, -0.6472222222222223, -0.6537037037037037, -0.6620370370370371, -0.6712962962962963, -0.6787037037037037, -0.687037037037037, -0.6907407407407408, -0.6925925925925925, -0.6925925925925925, -0.6842592592592592, -0.674074074074074, -0.6583333333333333, -0.6416666666666667, -0.6212962962962963, -0.6, -0.5777777777777777, -0.562962962962963, -0.5546296296296296, -0.5518518518518518, -0.5518518518518518, -0.5537037037037037, -0.5564814814814815, -0.5574074074074075, -0.5574074074074075, -0.5574074074074075, -0.5462962962962963]","[0.0, 0.0, 0.0, 0.0, 0.0, 0.0, 0.0, 0.0, 0.0, 0.0, 0.0, 0.0, 0.0, 0.0, 0.0, 0.0, 0.0, 0.0, 0.0, 0.0, 0.0, 0.0, 0.0, 0.0, 0.0, 0.0, 0.0, 0.0, 0.0, 0.0, 0.0, 0.0, 0.0, 0.0, 0.0, 0.0, 0.0, 0.0, 0.0, 0.0, 0.0, 0.0, -0.026851851851851852, -0.026851851851851852, -0.027777777777777776, -0.028703703703703703, -0.028703703703703703, -0.027777777777777776, -0.026851851851851852, -0.025925925925925925, -0.025925925925925925, -0.025925925925925925, -0.025925925925925925, -0.028703703703703703, -0.03148148148148148, -0.03425925925925926, -0.03611111111111111, -0.037037037037037035, -0.03611111111111111, -0.03148148148148148, -0.025925925925925925, -0.022222222222222223, -0.017592592592592594, -0.011111111111111112, -0.007407407407407408, -0.007407407407407408, -0.007407407407407408, -0.003703703703703704]",641
0.3,0.3,7.0,0.0,"[0.0, 0.0, 0.0, 0.0, 0.0, 0.0, 0.0, 0.0, 0.0, 0.0, 0.0, 0.0, 0.0, 0.0, 0.0, 0.0, 0.0, 0.0, 0.0, 0.0, 0.0, 0.0, 0.0, 0.0, 0.0, 0.0, 0.0, 0.0, 0.0, 0.0, 0.0, 0.0, 0.0, 0.0, 0.0, 0.0, 0.0, 0.0, 0.0, 0.0, 0.0, 0.0, 0.0, 0.0, 0.0, 0.0, 0.0, 0.0, 0.0, 0.0, 0.0, 0.0, 0.0, 0.0, 0.0, 0.0, -0.6731481481481482, -0.674074074074074, -0.674074074074074, -0.674074074074074, -0.674074074074074, -0.6796296296296296, -0.6814814814814815, -0.6833333333333333, -0.6842592592592592, -0.6851851851851852, -0.6851851851851852, -0.6851851851851852, -0.6842592592592592, -0.6833333333333333, -0.6824074074074075, -0.6824074074074075, -0.6824074074074075, -0.6824074074074075, -0.6824074074074075, -0.6824074074074075, -0.6824074074074075, -0.6824074074074075, -0.6824074074074075, -0.6824074074074075, -0.6824074074074075, -0.7138888888888889, -0.7157407407407408, -0.7166666666666667, -0.7212962962962963, -0.7268518518518519, -0.7296296296296296, -0.7305555555555555, -0.7305555555555555, -0.7305555555555555, -0.7305555555555555, -0.7305555555555555, -0.7157407407407408]","[0.0, 0.0, 0.0, 0.0, 0.0, 0.0, 0.0, 0.0, 0.0, 0.0, 0.0, 0.0, 0.0, 0.0, 0.0, 0.0, 0.0, 0.0, 0.0, 0.0, 0.0, 0.0, 0.0, 0.0, 0.0, 0.0, 0.0, 0.0, 0.0, 0.0, 0.0, 0.0, 0.0, 0.0, 0.0, 0.0, 0.0, 0.0, 0.0, 0.0, 0.0, 0.0, 0.0, 0.0, 0.0, 0.0, 0.0, 0.0, 0.0, 0.0, 0.0, 0.0, 0.0, 0.0, 0.0, 0.0, -0.05648148148148148, -0.05555555555555555, -0.05555555555555555, -0.05555555555555555, -0.05555555555555555, -0.05462962962962963, -0.05462962962962963, -0.05555555555555555, -0.05555555555555555, -0.05648148148148148, -0.05648148148148148, -0.05648148148148148, -0.05, -0.049074074074074076, -0.046296296296296294, -0.046296296296296294, -0.046296296296296294, -0.046296296296296294, -0.046296296296296294, -0.046296296296296294, -0.046296296296296294, -0.046296296296296294, -0.046296296296296294, -0.046296296296296294, -0.046296296296296294, -0.03981481481481482, -0.03888888888888889, -0.03888888888888889, -0.03611111111111111, -0.032407407407407406, -0.028703703703703703, -0.025925925925925925, -0.025, -0.025, -0.025, -0.025, -0.025]",641
0.3,0.3,8.0,1.0,"[0.0, 0.0, 0.0, 0.0, 0.0, 0.0, 0.0, 0.0, 0.0, 0.0, 0.0, 0.0, 0.0, 0.0, 0.0, 0.0, 0.0, 0.0, 0.0, 0.0, 0.0, 0.0, 0.0, 0.0, 0.0, 0.0, 0.0, 0.0, 0.0, 0.0, 0.0, 0.0, 0.0, 0.0, 0.0, 0.0, 0.0, 0.0, 0.0, 0.0, 0.0, 0.0, 0.0, 0.0, 0.0, 0.0, 0.0, 0.0, 0.0, 0.0, 0.0, 0.0, 0.0, 0.0, 0.0, 0.0, 0.0, 0.0, 0.0, 0.0, 0.0, 0.0, 0.0, 0.0, 0.0, 0.0, 0.0, 0.0, 0.0, 0.0, 0.0, 0.0, 0.0, 0.0, 0.0, 0.0, 0.0, 0.0, 0.0, 0.0, 0.0, 0.0, 0.0, -0.6814814814814815, -0.6824074074074075, -0.6824074074074075, -0.6824074074074075, -0.6824074074074075, -0.6824074074074075, -0.6805555555555556, -0.6777777777777778, -0.6694444444444444, -0.6592592592592592, -0.6592592592592592, -0.6592592592592592, -0.5768518518518518]","[0.0, 0.0, 0.0, 0.0, 0.0, 0.0, 0.0, 0.0, 0.0, 0.0, 0.0, 0.0, 0.0, 0.0, 0.0, 0.0, 0.0, 0.0, 0.0, 0.0, 0.0, 0.0, 0.0, 0.0, 0.0, 0.0, 0.0, 0.0, 0.0, 0.0, 0.0, 0.0, 0.0, 0.0, 0.0, 0.0, 0.0, 0.0, 0.0, 0.0, 0.0, 0.0, 0.0, 0.0, 0.0, 0.0, 0.0, 0.0, 0.0, 0.0, 0.0, 0.0, 0.0, 0.0, 0.0, 0.0, 0.0, 0.0, 0.0, 0.0, 0.0, 0.0, 0.0, 0.0, 0.0, 0.0, 0.0, 0.0, 0.0, 0.0, 0.0, 0.0, 0.0, 0.0, 0.0, 0.0, 0.0, 0.0, 0.0, 0.0, 0.0, 0.0, 0.0, -0.04814814814814815, -0.04814814814814815, -0.04814814814814815, -0.04814814814814815, -0.04814814814814815, -0.04351851851851852, -0.041666666666666664, -0.03888888888888889, -0.03611111111111111, -0.03518518518518519, -0.03518518518518519, -0.03518518518518519, -0.027777777777777776]",641
-0.3,-0.3,9.0,66.0,"[0.0, 0.0, 0.0, 0.0, 0.0, 0.0, 0.0, 0.0, 0.0, 0.0, 0.0, 0.0, 0.0, 0.0, 0.0, 0.0, 0.0, 0.0, 0.0, 0.0, 0.0, 0.0, 0.0, 0.0, 0.0, -0.23333333333333334, -0.2222222222222222, -0.20833333333333334, -0.1935185185185185, -0.1787037037037037, -0.1638888888888889, -0.15092592592592594, -0.14444444444444443, -0.14074074074074075, -0.13796296296296295, -0.1361111111111111, -0.13518518518518519, -0.13425925925925927, -0.13333333333333333, -0.13148148148148148, -0.13055555555555556, -0.13055555555555556, -0.13055555555555556, -0.13055555555555556, -0.13055555555555556, -0.13055555555555556, -0.13240740740740742, -0.13148148148148148, -0.1287037037037037, -0.1259259259259259, -0.12222222222222222, -0.11851851851851852, -0.11388888888888889, -0.11018518518518519, -0.10925925925925926, -0.10833333333333334, -0.10925925925925926, -0.11203703703703703, -0.11296296296296296, -0.11296296296296296, -0.11296296296296296, -0.11296296296296296, -0.11666666666666667, -0.14629629629629629, -0.1638888888888889, -0.1824074074074074]","[0.0, 0.0, 0.0, 0.0, 0.0, 0.0, 0.0, 0.0, 0.0, 0.0, 0.0, 0.0, 0.0, 0.0, 0.0, 0.0, 0.0, 0.0, 0.0, 0.0, 0.0, 0.0, 0.0, 0.0, 0.0, 0.05555555555555555, 0.053703703703703705, 0.053703703703703705, 0.05648148148148148, 0.06111111111111111, 0.06666666666666667, 0.075, 0.08518518518518518, 0.0962962962962963, 0.10648148148148148, 0.11666666666666667, 0.1259259259259259, 0.13333333333333333, 0.1398148148148148, 0.14537037037037037, 0.15, 0.15462962962962962, 0.1574074074074074, 0.1574074074074074, 0.1574074074074074, 0.1574074074074074, 0.15462962962962962, 0.15092592592592594, 0.14722222222222223, 0.14629629629629629, 0.14537037037037037, 0.14537037037037037, 0.14444444444444443, 0.14537037037037037, 0.14722222222222223, 0.15, 0.1527777777777778, 0.1537037037037037, 0.15462962962962962, 0.15462962962962962, 0.15462962962962962, 0.15462962962962962, 0.14722222222222223, 0.037037037037037035, -0.03611111111111111, -0.125]",641
-0.3,-0.3,10.0,68.0,"[0.0, 0.0, 0.0, 0.0, 0.0, 0.0, 0.0, 0.0, 0.0, 0.0, 0.0, 0.0, 0.0, 0.0, 0.0, 0.0, 0.0, 0.0, 0.0, 0.0, 0.0, 0.0, 0.0, 0.0, 0.0, 0.0, 0.0, 0.0, 0.0, 0.0, 0.0, 0.0, 0.0, 0.0, 0.0, 0.0, -0.2574074074074074, -0.2564814814814815, -0.25555555555555554, -0.2537037037037037, -0.25277777777777777, -0.25092592592592594, -0.2490740740740741, -0.2462962962962963, -0.24444444444444444, -0.24444444444444444, -0.24444444444444444, -0.24259259259259258, -0.24166666666666667, -0.24166666666666667, -0.24166666666666667, -0.24166666666666667, -0.24166666666666667, -0.24166666666666667, -0.24074074074074073]","[0.0, 0.0, 0.0, 0.0, 0.0, 0.0, 0.0, 0.0, 0.0, 0.0, 0.0, 0.0, 0.0, 0.0, 0.0, 0.0, 0.0, 0.0, 0.0, 0.0, 0.0, 0.0, 0.0, 0.0, 0.0, 0.0, 0.0, 0.0, 0.0, 0.0, 0.0, 0.0, 0.0, 0.0, 0.0, 0.0, 0.20277777777777778, 0.2074074074074074, 0.21203703703703702, 0.21944444444444444, 0.22407407407407406, 0.2324074074074074, 0.2388888888888889, 0.24444444444444444, 0.2490740740740741, 0.25555555555555554, 0.2611111111111111, 0.2657407407407407, 0.26851851851851855, 0.26944444444444443, 0.26944444444444443, 0.26944444444444443, 0.26944444444444443, 0.26944444444444443, 0.2712962962962963]",641
-0.3,-0.3,11.0,67.0,"[0.0, 0.0, 0.0, 0.0, 0.0, 0.0, 0.0, 0.0, 0.0, 0.0, 0.0, 0.0, 0.0, 0.0, 0.0, 0.0, 0.0, 0.0, 0.0, 0.0, 0.0, 0.0, 0.0, 0.0, 0.0, 0.0, 0.0, 0.0, 0.0, -0.2851851851851852, -0.2861111111111111, -0.2861111111111111, -0.2851851851851852, -0.28425925925925927, -0.28425925925925927, -0.2824074074074074, -0.2796296296296296, -0.27870370370370373, -0.2777777777777778, -0.2777777777777778, -0.2777777777777778, -0.2777777777777778, -0.2759259259259259, -0.2740740740740741, -0.27314814814814814, -0.2722222222222222, -0.2712962962962963, -0.2712962962962963, -0.27037037037037037, -0.26851851851851855, -0.26666666666666666, -0.26481481481481484, -0.26296296296296295, -0.262037037037037, -0.262037037037037, -0.262037037037037, -0.2611111111111111, -0.25925925925925924, -0.2574074074074074, -0.25555555555555554, -0.25555555555555554, -0.2574074074074074, -0.2574074074074074, -0.2574074074074074, -0.2574074074074074, -0.2574074074074074, -0.25833333333333336]","[0.0, 0.0, 0.0, 0.0, 0.0, 0.0, 0.0, 0.0, 0.0, 0.0, 0.0, 0.0, 0.0, 0.0, 0.0, 0.0, 0.0, 0.0, 0.0, 0.0, 0.0, 0.0, 0.0, 0.0, 0.0, 0.0, 0.0, 0.0, 0.0, 0.14351851851851852, 0.14537037037037037, 0.14722222222222223, 0.14814814814814814, 0.14814814814814814, 0.14814814814814814, 0.14722222222222223, 0.14537037037037037, 0.14351851851851852, 0.14351851851851852, 0.14537037037037037, 0.14722222222222223, 0.14722222222222223, 0.14537037037037037, 0.14444444444444443, 0.14351851851851852, 0.14444444444444443, 0.14629629629629629, 0.14814814814814814, 0.15, 0.15185185185185185, 0.1537037037037037, 0.1574074074074074, 0.16111111111111112, 0.1648148148148148, 0.16944444444444445, 0.17407407407407408, 0.17777777777777778, 0.17962962962962964, 0.1824074074074074, 0.18611111111111112, 0.1935185185185185, 0.19907407407407407, 0.19907407407407407, 0.19907407407407407, 0.19907407407407407, 0.19907407407407407, 0.20277777777777778]",641
0.3,0.3,12.0,1.0,"[0.0, 0.0, 0.0, 0.0, 0.0, 0.0, 0.0, 0.0, 0.0, 0.0, 0.0, 0.0, 0.0, 0.0, 0.0, 0.0, 0.0, 0.0, 0.0, 0.0, 0.0, 0.0, 0.0, 0.0, 0.0, 0.0, 0.0, 0.0, 0.0, 0.0, 0.0, 0.0, 0.0, 0.0, 0.0, 0.0, 0.0, 0.0, 0.0, 0.0, 0.0, 0.0, 0.0, 0.0, 0.0, 0.0, 0.0, 0.0, 0.0, -0.4703703703703704, -0.46944444444444444, -0.4675925925925926, -0.4675925925925926, -0.46944444444444444, -0.46944444444444444, -0.46944444444444444, -0.46944444444444444, -0.46944444444444444, -0.4287037037037037]","[0.0, 0.0, 0.0, 0.0, 0.0, 0.0, 0.0, 0.0, 0.0, 0.0, 0.0, 0.0, 0.0, 0.0, 0.0, 0.0, 0.0, 0.0, 0.0, 0.0, 0.0, 0.0, 0.0, 0.0, 0.0, 0.0, 0.0, 0.0, 0.0, 0.0, 0.0, 0.0, 0.0, 0.0, 0.0, 0.0, 0.0, 0.0, 0.0, 0.0, 0.0, 0.0, 0.0, 0.0, 0.0, 0.0, 0.0, 0.0, 0.0, -0.0787037037037037, -0.0787037037037037, -0.07592592592592592, -0.07314814814814814, -0.06666666666666667, -0.06296296296296296, -0.06296296296296296, -0.06296296296296296, -0.06296296296296296, -0.05648148148148148]",641
-0.3,0.3,13.0,44.0,"[0.0, 0.0, 0.0, 0.0, 0.0, 0.0, 0.0, 0.0, 0.0, 0.0, 0.0, 0.0, 0.0, 0.0, 0.0, 0.0, 0.0, 0.0, 0.0, 0.0, 0.0, 0.0, 0.0, 0.0, 0.0, 0.0, 0.0, 0.0, 0.0, 0.0, 0.0, 0.0, 0.0, 0.0, 0.0, 0.0, 0.0, 0.0, 0.010185185185185186, 0.011111111111111112, 0.011111111111111112, 0.011111111111111112, 0.011111111111111112, 0.011111111111111112, 0.011111111111111112, -0.05185185185185185, -0.16666666666666666, -0.22777777777777777]","[0.0, 0.0, 0.0, 0.0, 0.0, 0.0, 0.0, 0.0, 0.0, 0.0, 0.0, 0.0, 0.0, 0.0, 0.0, 0.0, 0.0, 0.0, 0.0, 0.0, 0.0, 0.0, 0.0, 0.0, 0.0, 0.0, 0.0, 0.0, 0.0, 0.0, 0.0, 0.0, 0.0, 0.0, 0.0, 0.0, 0.0, 0.0, -0.046296296296296294, -0.04722222222222222, -0.049074074074074076, -0.049074074074074076, -0.049074074074074076, -0.049074074074074076, -0.049074074074074076, -0.05555555555555555, -0.05092592592592592, -0.04722222222222222]",641
0.3,-0.3,14.0,89.0,"[0.0, 0.0, 0.0, 0.0, 0.0, 0.0, 0.0, 0.0, 0.0, 0.0, 0.0, 0.0, 0.0, 0.0, 0.0, 0.0, 0.0, 0.0, 0.0, 0.0, 0.0, 0.0, 0.0, 0.0, 0.0, 0.0, 0.0, 0.0, 0.0, 0.0, 0.0, 0.0, 0.0, 0.0, 0.0, 0.0, -0.4537037037037037, -0.4546296296296296, -0.4601851851851852, -0.462037037037037, -0.462037037037037, -0.462037037037037, -0.462037037037037, -0.44074074074074077]","[0.0, 0.0, 0.0, 0.0, 0.0, 0.0, 0.0, 0.0, 0.0, 0.0, 0.0, 0.0, 0.0, 0.0, 0.0, 0.0, 0.0, 0.0, 0.0, 0.0, 0.0, 0.0, 0.0, 0.0, 0.0, 0.0, 0.0, 0.0, 0.0, 0.0, 0.0, 0.0, 0.0, 0.0, 0.0, 0.0, -0.062037037037037036, -0.058333333333333334, -0.05, -0.04537037037037037, -0.04537037037037037, -0.04537037037037037, -0.04537037037037037, -0.03333333333333333]",641
0.3,-0.3,15.0,0.0,"[0.0, 0.0, 0.0, 0.0, 0.0, 0.0, 0.0, 0.0, 0.0, 0.0, 0.0, 0.0, 0.0, 0.0, 0.0, 0.0, 0.0, 0.0, 0.0, 0.0, 0.0, 0.0, 0.0, 0.0, 0.0, 0.0, 0.0, 0.0, 0.0, 0.0, 0.0, 0.0, 0.0, 0.0, 0.0, -0.5055555555555555, -0.5111111111111111, -0.5175925925925926, -0.5212962962962963, -0.525, -0.5287037037037037, -0.5324074074074074, -0.5361111111111111, -0.537962962962963, -0.5407407407407407, -0.5425925925925926, -0.5472222222222223, -0.5527777777777778, -0.562037037037037, -0.5675925925925925, -0.5675925925925925, -0.5675925925925925, -0.5675925925925925, -0.5675925925925925, -0.5675925925925925]","[0.0, 0.0, 0.0, 0.0, 0.0, 0.0, 0.0, 0.0, 0.0, 0.0, 0.0, 0.0, 0.0, 0.0, 0.0, 0.0, 0.0, 0.0, 0.0, 0.0, 0.0, 0.0, 0.0, 0.0, 0.0, 0.0, 0.0, 0.0, 0.0, 0.0, 0.0, 0.0, 0.0, 0.0, 0.0, -0.037037037037037035, -0.03518518518518519, -0.03333333333333333, -0.03333333333333333, -0.03333333333333333, -0.03148148148148148, -0.028703703703703703, -0.025925925925925925, -0.023148148148148147, -0.019444444444444445, -0.016666666666666666, -0.012962962962962963, -0.010185185185185186, -0.007407407407407408, -0.004629629629629629, -0.004629629629629629, -0.004629629629629629, -0.004629629629629629, -0.004629629629629629, -0.004629629629629629]",641
-0.3,0.3,0.0,33.0,"[0.0, 0.0, 0.0, 0.0, 0.0, 0.0, 0.0, 0.0, 0.0, 0.0, 0.0, 0.0, 0.0, 0.0, -0.08611111111111111, -0.08611111111111111, -0.08425925925925926, -0.08333333333333333, -0.08148148148148149, -0.07962962962962963, -0.07777777777777778, -0.07592592592592592, -0.07314814814814814, -0.0712962962962963, -0.06944444444444445, -0.06759259259259259, -0.06666666666666667, -0.06574074074074074, -0.06574074074074074, -0.06481481481481481, -0.06296296296296296, -0.06296296296296296, -0.06296296296296296, -0.06296296296296296, -0.06296296296296296, -0.06481481481481481, -0.07777777777777778, -0.08333333333333333, -0.08981481481481482, -0.09814814814814815, -0.10833333333333334, -0.11851851851851852, -0.13055555555555556, -0.14629629629629629, -0.16111111111111112, -0.17685185185185184]","[0.0, 0.0, 0.0, 0.0, 0.0, 0.0, 0.0, 0.0, 0.0, 0.0, 0.0, 0.0, 0.0, 0.0, 0.021296296296296296, 0.021296296296296296, 0.024074074074074074, 0.025, 0.028703703703703703, 0.02962962962962963, 0.02962962962962963, 0.028703703703703703, 0.026851851851851852, 0.024074074074074074, 0.021296296296296296, 0.018518518518518517, 0.016666666666666666, 0.013888888888888888, 0.012037037037037037, 0.009259259259259259, 0.006481481481481481, 0.006481481481481481, 0.006481481481481481, 0.006481481481481481, 0.006481481481481481, 0.009259259259259259, 0.03796296296296296, 0.05, 0.05925925925925926, 0.06851851851851852, 0.07685185185185185, 0.08333333333333333, 0.08888888888888889, 0.09351851851851851, 0.09537037037037037, 0.09722222222222222]",642
-0.3,-0.3,1.0,56.0,"[0.0, 0.0, -0.012962962962962963, -0.011111111111111112, -0.008333333333333333, -0.005555555555555556, -0.002777777777777778, 0.0, 0.001851851851851852, 0.004629629629629629, 0.005555555555555556, 0.005555555555555556, 0.005555555555555556, 0.005555555555555556, 0.005555555555555556, -0.001851851851851852, -0.019444444444444445, -0.027777777777777776, -0.03518518518518519, -0.04259259259259259, -0.049074074074074076, -0.05740740740740741, -0.06666666666666667, -0.07962962962962963, -0.09259259259259259, -0.10555555555555556, -0.12037037037037036, -0.13240740740740742, -0.1425925925925926]","[0.0, 0.0, 0.03518518518518519, 0.037037037037037035, 0.03981481481481482, 0.04259259259259259, 0.044444444444444446, 0.046296296296296294, 0.049074074074074076, 0.05092592592592592, 0.05277777777777778, 0.05277777777777778, 0.05277777777777778, 0.05277777777777778, 0.05277777777777778, 0.05, 0.024074074074074074, 0.012037037037037037, -0.002777777777777778, -0.01574074074074074, -0.02962962962962963, -0.044444444444444446, -0.06018518518518518, -0.07685185185185185, -0.09166666666666666, -0.10555555555555556, -0.12129629629629629, -0.13333333333333333, -0.14444444444444443]",642
-0.3,0.3,2.0,33.0,"[0.0, 0.0, 0.0, 0.0, 0.0, 0.0, 0.0, 0.0, 0.0, 0.0, 0.0, 0.0, 0.0, 0.0, 0.0, 0.0, 0.0, 0.0, 0.0, 0.0, 0.0, 0.0, 0.0, 0.0, 0.0, 0.0, 0.0, 0.0, 0.0, 0.0, 0.0, 0.0, 0.0, 0.0, 0.0, 0.0, 0.0, 0.0, 0.0, 0.0, 0.0, 0.0, 0.0, 0.0, 0.0, 0.0, 0.0, 0.0, 0.0, 0.0, 0.0, 0.0, 0.0, 0.0, 0.0, 0.0, 0.0, 0.0, 0.0, 0.0, 0.0, 0.0, 0.0, 0.0, 0.0, 0.0, 0.0, 0.0, 0.021296296296296296, 0.024074074074074074, 0.025925925925925925, 0.028703703703703703, 0.027777777777777776, 0.025925925925925925, 0.027777777777777776, 0.027777777777777776, 0.028703703703703703, 0.032407407407407406, 0.032407407407407406, 0.032407407407407406, 0.032407407407407406, 0.006481481481481481, -0.028703703703703703, -0.062037037037037036, -0.09907407407407408, -0.14166666666666666, -0.1925925925925926]","[0.0, 0.0, 0.0, 0.0, 0.0, 0.0, 0.0, 0.0, 0.0, 0.0, 0.0, 0.0, 0.0, 0.0, 0.0, 0.0, 0.0, 0.0, 0.0, 0.0, 0.0, 0.0, 0.0, 0.0, 0.0, 0.0, 0.0, 0.0, 0.0, 0.0, 0.0, 0.0, 0.0, 0.0, 0.0, 0.0, 0.0, 0.0, 0.0, 0.0, 0.0, 0.0, 0.0, 0.0, 0.0, 0.0, 0.0, 0.0, 0.0, 0.0, 0.0, 0.0, 0.0, 0.0, 0.0, 0.0, 0.0, 0.0, 0.0, 0.0, 0.0, 0.0, 0.0, 0.0, 0.0, 0.0, 0.0, 0.0, -0.022222222222222223, -0.03518518518518519, -0.05, -0.06296296296296296, -0.07685185185185185, -0.09537037037037037, -0.11296296296296296, -0.125, -0.13518518518518519, -0.14537037037037037, -0.14722222222222223, -0.14722222222222223, -0.14722222222222223, -0.14537037037037037, -0.12777777777777777, -0.11388888888888889, -0.10092592592592593, -0.08796296296296297, -0.07777777777777778]",642
0.3,0.3,3.0,11.0,"[0.0, 0.0, 0.0, 0.0, 0.0, 0.0, 0.0, 0.0, 0.0, 0.0, 0.0, 0.0, 0.0, 0.0, 0.0, 0.0, 0.0, 0.0, 0.0, 0.0, 0.0, 0.0, 0.0, 0.0, 0.0, -0.021296296296296296, -0.023148148148148147, -0.026851851851851852, -0.028703703703703703, -0.028703703703703703, -0.028703703703703703, -0.037037037037037035, -0.000925925925925926, 0.040740740740740744, 0.09537037037037037, 0.14444444444444443]","[0.0, 0.0, 0.0, 0.0, 0.0, 0.0, 0.0, 0.0, 0.0, 0.0, 0.0, 0.0, 0.0, 0.0, 0.0, 0.0, 0.0, 0.0, 0.0, 0.0, 0.0, 0.0, 0.0, 0.0, 0.0, -0.075, -0.0824074074074074, -0.09259259259259259, -0.09537037037037037, -0.09537037037037037, -0.09537037037037037, -0.10648148148148148, -0.06296296296296296, -0.008333333333333333, 0.05740740740740741, 0.10740740740740741]",642
0.3,-0.3,4.0,79.0,"[0.0, 0.0, 0.0, 0.0, 0.0, 0.0, 0.0, 0.0, 0.0, 0.0, 0.0, 0.0, 0.0, 0.0, 0.0, 0.0, 0.0, 0.0, 0.021296296296296296, 0.022222222222222223, 0.022222222222222223, 0.014814814814814815, 0.009259259259259259, 0.0, 0.0, 0.0, 0.0, 0.025, 0.0787037037037037, 0.1361111111111111, 0.2]","[0.0, 0.0, 0.0, 0.0, 0.0, 0.0, 0.0, 0.0, 0.0, 0.0, 0.0, 0.0, 0.0, 0.0, 0.0, 0.0, 0.0, 0.0, -0.010185185185185186, -0.010185185185185186, -0.010185185185185186, -0.006481481481481481, -0.002777777777777778, 0.001851851851851852, 0.001851851851851852, 0.001851851851851852, 0.001851851851851852, -0.002777777777777778, -0.021296296296296296, -0.05, -0.08611111111111111]",642
0.3,-0.3,5.0,79.0,"[0.0, 0.0, -0.021296296296296296, -0.021296296296296296, -0.017592592592592594, -0.01574074074074074, -0.014814814814814815, -0.012962962962962963, -0.011111111111111112, -0.011111111111111112, -0.011111111111111112, -0.012037037037037037, -0.014814814814814815, -0.020370370370370372, -0.024074074074074074, -0.026851851851851852, -0.030555555555555555, -0.037037037037037035, -0.040740740740740744, -0.04259259259259259, -0.04259259259259259, -0.04259259259259259, -0.05, -0.019444444444444445, 0.010185185185185186, 0.04722222222222222, 0.10648148148148148, 0.1675925925925926]","[0.0, 0.0, 0.003703703703703704, 0.003703703703703704, 0.007407407407407408, 0.009259259259259259, 0.009259259259259259, 0.010185185185185186, 0.008333333333333333, 0.006481481481481481, 0.003703703703703704, 0.001851851851851852, 0.000925925925925926, 0.000925925925925926, 0.001851851851851852, 0.002777777777777778, 0.004629629629629629, 0.005555555555555556, 0.007407407407407408, 0.008333333333333333, 0.008333333333333333, 0.008333333333333333, 0.010185185185185186, -0.01574074074074074, -0.03796296296296296, -0.06481481481481481, -0.10555555555555556, -0.14537037037037037]",642
-0.3,-0.3,6.0,56.0,"[0.0, -0.125, -0.12222222222222222, -0.11574074074074074, -0.10648148148148148, -0.09814814814814815, -0.08796296296296297, -0.0787037037037037, -0.06944444444444445, -0.06481481481481481, -0.06388888888888888, -0.06574074074074074, -0.06759259259259259, -0.06666666666666667, -0.06481481481481481, -0.06481481481481481, -0.06481481481481481, -0.06481481481481481, -0.06481481481481481, -0.06481481481481481, -0.06481481481481481, -0.06481481481481481, -0.06944444444444445, -0.1675925925925926]","[0.0, 0.14907407407407408, 0.14907407407407408, 0.14722222222222223, 0.14351851851851852, 0.1388888888888889, 0.13148148148148148, 0.12407407407407407, 0.11574074074074074, 0.10555555555555556, 0.09351851851851851, 0.0824074074074074, 0.07037037037037037, 0.062037037037037036, 0.05648148148148148, 0.05648148148148148, 0.05648148148148148, 0.05648148148148148, 0.05648148148148148, 0.05648148148148148, 0.05648148148148148, 0.05648148148148148, 0.04814814814814815, -0.05]",642
0.3,0.3,7.0,11.0,"[0.0, 0.0, 0.0, 0.0, 0.0, 0.0, 0.0, 0.0, 0.0, 0.0, 0.0, 0.0, 0.0, 0.0, 0.0, 0.0, 0.0, 0.0, 0.0, 0.0, 0.0, 0.0, 0.0, 0.0, 0.0, 0.0, 0.0, 0.0, 0.0, 0.0, -0.21203703703703702, -0.21481481481481482, -0.2111111111111111, -0.20925925925925926, -0.21481481481481482, -0.2175925925925926, -0.2175925925925926, -0.2175925925925926, -0.2175925925925926, -0.2175925925925926, -0.2175925925925926, -0.2175925925925926, -0.2175925925925926, -0.2175925925925926, -0.2490740740740741, -0.2490740740740741, -0.2490740740740741, -0.2490740740740741, -0.2490740740740741, -0.2490740740740741, -0.2490740740740741, -0.2490740740740741, -0.2490740740740741]","[0.0, 0.0, 0.0, 0.0, 0.0, 0.0, 0.0, 0.0, 0.0, 0.0, 0.0, 0.0, 0.0, 0.0, 0.0, 0.0, 0.0, 0.0, 0.0, 0.0, 0.0, 0.0, 0.0, 0.0, 0.0, 0.0, 0.0, 0.0, 0.0, 0.0, 0.07222222222222222, 0.07222222222222222, 0.06759259259259259, 0.06481481481481481, 0.05648148148148148, 0.05277777777777778, 0.05277777777777778, 0.05277777777777778, 0.05277777777777778, 0.05277777777777778, 0.05277777777777778, 0.05277777777777778, 0.05277777777777778, 0.05277777777777778, -0.0962962962962963, -0.0962962962962963, -0.0962962962962963, -0.0962962962962963, -0.0962962962962963, -0.0962962962962963, -0.0962962962962963, -0.0962962962962963, -0.0962962962962963]",642
0.3,0.3,8.0,11.0,"[0.0, 0.0, 0.0, 0.0, 0.0, 0.0, 0.0, 0.0, 0.0, 0.0, 0.0, 0.0, 0.0, 0.0, 0.0, 0.0, 0.0, 0.0, 0.0, 0.0, 0.0, 0.0, 0.0, 0.0, 0.0, 0.0, 0.0, -0.11018518518518519, -0.11666666666666667, -0.125, -0.13425925925925927, -0.14351851851851852, -0.14907407407407408, -0.15, -0.15092592592592594, -0.15092592592592594, -0.15092592592592594, -0.15092592592592594, -0.15092592592592594, -0.15092592592592594, -0.15092592592592594, -0.15092592592592594, -0.15092592592592594, -0.09074074074074075, 0.18518518518518517]","[0.0, 0.0, 0.0, 0.0, 0.0, 0.0, 0.0, 0.0, 0.0, 0.0, 0.0, 0.0, 0.0, 0.0, 0.0, 0.0, 0.0, 0.0, 0.0, 0.0, 0.0, 0.0, 0.0, 0.0, 0.0, 0.0, 0.0, 0.013888888888888888, 0.012962962962962963, 0.010185185185185186, 0.006481481481481481, 0.000925925925925926, -0.004629629629629629, -0.011111111111111112, -0.012962962962962963, -0.012962962962962963, -0.012962962962962963, -0.012962962962962963, -0.012962962962962963, -0.012962962962962963, -0.012962962962962963, -0.012962962962962963, -0.012962962962962963, 0.06111111111111111, 0.2916666666666667]",642
0.3,-0.3,9.0,79.0,"[0.0, 0.0, 0.0, 0.0, 0.0, 0.0, 0.0, 0.0, 0.0, 0.0, 0.0, 0.0, 0.0, 0.0, 0.0, 0.0, 0.0, 0.0, -0.06481481481481481, -0.05740740740740741, -0.05277777777777778, -0.05277777777777778, -0.05277777777777778, -0.04722222222222222, -0.011111111111111112, 0.017592592592592594, 0.06944444444444445, 0.12777777777777777, 0.18796296296296297]","[0.0, 0.0, 0.0, 0.0, 0.0, 0.0, 0.0, 0.0, 0.0, 0.0, 0.0, 0.0, 0.0, 0.0, 0.0, 0.0, 0.0, 0.0, 0.12222222222222222, 0.12777777777777777, 0.1287037037037037, 0.1287037037037037, 0.1287037037037037, 0.12407407407407407, 0.09259259259259259, 0.06944444444444445, 0.027777777777777776, -0.017592592592592594, -0.058333333333333334]",642
-0.3,-0.3,10.0,57.0,"[0.0, 0.0, 0.0, 0.0, 0.0, 0.0, 0.0, 0.0, 0.0, 0.0, 0.0, 0.0, 0.0, 0.0, 0.0, 0.0, 0.0, 0.0, 0.0, 0.0, 0.0, -0.14907407407407408, -0.1398148148148148, -0.12962962962962962, -0.12962962962962962, -0.12962962962962962, -0.12962962962962962, -0.12962962962962962, -0.12962962962962962, -0.12962962962962962, -0.12962962962962962, -0.12962962962962962, -0.13240740740740742, -0.13055555555555556, -0.13148148148148148, -0.13148148148148148, -0.13148148148148148, -0.13148148148148148, -0.13148148148148148, -0.13148148148148148, -0.13148148148148148, -0.13148148148148148, -0.13148148148148148, -0.27037037037037037]","[0.0, 0.0, 0.0, 0.0, 0.0, 0.0, 0.0, 0.0, 0.0, 0.0, 0.0, 0.0, 0.0, 0.0, 0.0, 0.0, 0.0, 0.0, 0.0, 0.0, 0.0, 0.011111111111111112, 0.025925925925925925, 0.03611111111111111, 0.03611111111111111, 0.03611111111111111, 0.03611111111111111, 0.03611111111111111, 0.03611111111111111, 0.03611111111111111, 0.03611111111111111, 0.03611111111111111, 0.006481481481481481, 0.008333333333333333, 0.009259259259259259, 0.009259259259259259, 0.009259259259259259, 0.009259259259259259, 0.009259259259259259, 0.009259259259259259, 0.009259259259259259, 0.009259259259259259, 0.009259259259259259, -0.075]",642
0.3,-0.3,11.0,79.0,"[0.0, 0.0, 0.0, 0.0, 0.0, 0.0, 0.0, 0.0, 0.0, 0.0, 0.0, 0.0, 0.0, 0.0, -0.14166666666666666, -0.14166666666666666, -0.14166666666666666, -0.14166666666666666, -0.14351851851851852, -0.14351851851851852, -0.14444444444444443, -0.14444444444444443, -0.14444444444444443, -0.14351851851851852, -0.1425925925925926, -0.14074074074074075, -0.1398148148148148, -0.13796296296296295, -0.13703703703703704, -0.13703703703703704, -0.1361111111111111, -0.1361111111111111, -0.1361111111111111, -0.13425925925925927, -0.13148148148148148, -0.13055555555555556, -0.13055555555555556, -0.13055555555555556, -0.13055555555555556, -0.12037037037037036, -0.07314814814814814, -0.044444444444444446, -0.012962962962962963, 0.022222222222222223, 0.06574074074074074, 0.10925925925925926]","[0.0, 0.0, 0.0, 0.0, 0.0, 0.0, 0.0, 0.0, 0.0, 0.0, 0.0, 0.0, 0.0, 0.0, -0.09444444444444444, -0.09444444444444444, -0.09444444444444444, -0.09166666666666666, -0.08888888888888889, -0.08703703703703704, -0.08518518518518518, -0.0824074074074074, -0.0787037037037037, -0.07685185185185185, -0.07222222222222222, -0.06944444444444445, -0.06666666666666667, -0.06296296296296296, -0.06111111111111111, -0.058333333333333334, -0.05462962962962963, -0.05277777777777778, -0.05092592592592592, -0.04722222222222222, -0.044444444444444446, -0.044444444444444446, -0.044444444444444446, -0.044444444444444446, -0.044444444444444446, -0.05185185185185185, -0.07592592592592592, -0.09351851851851851, -0.11388888888888889, -0.13796296296296295, -0.1675925925925926, -0.19537037037037036]",642
0.3,0.3,12.0,11.0,"[0.0, 0.0, 0.0, 0.0, 0.0, 0.0, 0.0, 0.0, 0.0, 0.0, 0.0, 0.0, 0.0, 0.0, 0.0, 0.0, 0.0, 0.0, 0.0, 0.0, 0.0, 0.0, 0.0, 0.0, 0.0, 0.0, 0.0, 0.0, 0.0, 0.0, 0.0, -0.10277777777777777, -0.10277777777777777, -0.10648148148148148, -0.10833333333333334, -0.11018518518518519, -0.1111111111111111, -0.11296296296296296, -0.11574074074074074, -0.12037037037037036, -0.12777777777777777, -0.1388888888888889, -0.15, -0.16574074074074074, -0.18055555555555555, -0.19537037037037036, -0.2074074074074074, -0.2175925925925926, -0.2212962962962963, -0.225, -0.22685185185185186, -0.22870370370370371, -0.23055555555555557, -0.23148148148148148, -0.2324074074074074, -0.2324074074074074, -0.2324074074074074, -0.2324074074074074, -0.2324074074074074, -0.2324074074074074, -0.2324074074074074, -0.2324074074074074, -0.2324074074074074, -0.2324074074074074, -0.23425925925925925]","[0.0, 0.0, 0.0, 0.0, 0.0, 0.0, 0.0, 0.0, 0.0, 0.0, 0.0, 0.0, 0.0, 0.0, 0.0, 0.0, 0.0, 0.0, 0.0, 0.0, 0.0, 0.0, 0.0, 0.0, 0.0, 0.0, 0.0, 0.0, 0.0, 0.0, 0.0, -0.15185185185185185, -0.15092592592592594, -0.14814814814814814, -0.14722222222222223, -0.14629629629629629, -0.14444444444444443, -0.14074074074074075, -0.1361111111111111, -0.12962962962962962, -0.12222222222222222, -0.11296296296296296, -0.10555555555555556, -0.0962962962962963, -0.08981481481481482, -0.08611111111111111, -0.08333333333333333, -0.08148148148148149, -0.08055555555555556, -0.0787037037037037, -0.07777777777777778, -0.07777777777777778, -0.07777777777777778, -0.0787037037037037, -0.07962962962962963, -0.07962962962962963, -0.07962962962962963, -0.07962962962962963, -0.07962962962962963, -0.07962962962962963, -0.07962962962962963, -0.07962962962962963, -0.07962962962962963, -0.07962962962962963, -0.07962962962962963]",642
-0.3,-0.3,13.0,57.0,"[0.0, 0.0, 0.0, 0.0, 0.0, 0.0, 0.0, 0.0, 0.0, 0.0, 0.0, 0.0, 0.0, 0.0, 0.0, 0.0, 0.0, 0.0, 0.0, 0.0, 0.0, 0.0, 0.0, 0.0, 0.0, 0.0, 0.0, 0.0, 0.0, 0.0, 0.0, 0.0, 0.0, 0.0, 0.0, 0.0, 0.0, 0.0, 0.0, 0.0, 0.0, 0.0, 0.0, 0.0, 0.0, 0.0, 0.0, 0.0, 0.0, 0.0, 0.0, 0.0, 0.0, 0.0, 0.0, 0.0, 0.0, -0.2037037037037037, -0.21574074074074073, -0.22685185185185186, -0.2324074074074074, -0.22685185185185186, -0.20555555555555555, -0.1675925925925926, -0.1259259259259259, -0.08055555555555556, -0.04259259259259259, -0.019444444444444445, -0.013888888888888888, -0.013888888888888888, -0.10740740740740741, -0.19537037037037036]","[0.0, 0.0, 0.0, 0.0, 0.0, 0.0, 0.0, 0.0, 0.0, 0.0, 0.0, 0.0, 0.0, 0.0, 0.0, 0.0, 0.0, 0.0, 0.0, 0.0, 0.0, 0.0, 0.0, 0.0, 0.0, 0.0, 0.0, 0.0, 0.0, 0.0, 0.0, 0.0, 0.0, 0.0, 0.0, 0.0, 0.0, 0.0, 0.0, 0.0, 0.0, 0.0, 0.0, 0.0, 0.0, 0.0, 0.0, 0.0, 0.0, 0.0, 0.0, 0.0, 0.0, 0.0, 0.0, 0.0, 0.0, -0.18611111111111112, -0.1962962962962963, -0.2074074074074074, -0.2111111111111111, -0.2, -0.1712962962962963, -0.1259259259259259, -0.08425925925925926, -0.044444444444444446, -0.012962962962962963, 0.008333333333333333, 0.012962962962962963, 0.012962962962962963, -0.023148148148148147, -0.07962962962962963]",642
-0.3,0.3,14.0,34.0,"[0.0, 0.0, 0.0, 0.0, 0.0, 0.0, 0.0, 0.0, 0.0, 0.0, 0.0, 0.0, 0.0, 0.0, 0.0, 0.0, 0.0, 0.0, 0.0, 0.0, 0.0, 0.0, 0.0, 0.0, -0.019444444444444445, -0.019444444444444445, -0.019444444444444445, -0.019444444444444445, -0.019444444444444445, -0.018518518518518517, -0.014814814814814815, -0.014814814814814815, -0.014814814814814815, -0.014814814814814815, -0.014814814814814815, -0.014814814814814815, -0.014814814814814815, -0.014814814814814815, -0.014814814814814815, -0.014814814814814815, -0.05, -0.24351851851851852]","[0.0, 0.0, 0.0, 0.0, 0.0, 0.0, 0.0, 0.0, 0.0, 0.0, 0.0, 0.0, 0.0, 0.0, 0.0, 0.0, 0.0, 0.0, 0.0, 0.0, 0.0, 0.0, 0.0, 0.0, -0.11018518518518519, -0.11018518518518519, -0.11018518518518519, -0.11018518518518519, -0.11018518518518519, -0.10740740740740741, -0.10462962962962963, -0.10462962962962963, -0.10462962962962963, -0.10462962962962963, -0.10462962962962963, -0.10462962962962963, -0.10462962962962963, -0.10462962962962963, -0.10462962962962963, -0.10462962962962963, -0.07777777777777778, -0.004629629629629629]",642
-0.3,0.3,15.0,33.0,"[0.0, 0.0, 0.0, 0.0, 0.0, 0.0, 0.0, 0.0, 0.0, 0.0, 0.0, 0.0, 0.0, 0.0, 0.0, 0.0, 0.0, 0.0, 0.0, 0.0, 0.0, 0.0, 0.0, 0.0, -0.09537037037037037, -0.09351851851851851, -0.09074074074074075, -0.08981481481481482, -0.08981481481481482, -0.08981481481481482, -0.08981481481481482, -0.08981481481481482, -0.08981481481481482, -0.08981481481481482, -0.08981481481481482, -0.08981481481481482, -0.09259259259259259, -0.15833333333333333]","[0.0, 0.0, 0.0, 0.0, 0.0, 0.0, 0.0, 0.0, 0.0, 0.0, 0.0, 0.0, 0.0, 0.0, 0.0, 0.0, 0.0, 0.0, 0.0, 0.0, 0.0, 0.0, 0.0, 0.0, -0.14166666666666666, -0.1425925925925926, -0.1425925925925926, -0.14074074074074075, -0.14074074074074075, -0.14074074074074075, -0.14074074074074075, -0.14074074074074075, -0.14074074074074075, -0.14074074074074075, -0.14074074074074075, -0.14074074074074075, -0.1287037037037037, -0.03425925925925926]",642
0.3,0.3,0.0,33.0,"[0.0, 0.0, 0.0, 0.0, 0.0, 0.0, 0.0, 0.0, 0.0, 0.0, 0.0, 0.0, 0.0, 0.0, 0.0, 0.0, 0.0, 0.0, 0.0, 0.0, 0.0, 0.0, 0.0, 0.0, 0.0, 0.0, 0.0, 0.0, 0.0, 0.0, 0.0, 0.0, 0.0, 0.0, 0.0, 0.0, 0.0, 0.0, 0.0, 0.0, 0.0, 0.0, 0.0, 0.0, 0.0, 0.0, 0.0, 0.0, 0.0, 0.0, 0.0, 0.0, 0.0, 0.0, 0.0, 0.0, 0.0, 0.0, 0.0, 0.0, 0.0, 0.0, 0.0, 0.0, 0.0, -0.2824074074074074, -0.27870370370370373, -0.275, -0.27037037037037037, -0.27037037037037037, -0.27037037037037037, -0.27037037037037037, -0.27037037037037037, -0.27037037037037037, -0.27037037037037037, -0.25462962962962965]","[0.0, 0.0, 0.0, 0.0, 0.0, 0.0, 0.0, 0.0, 0.0, 0.0, 0.0, 0.0, 0.0, 0.0, 0.0, 0.0, 0.0, 0.0, 0.0, 0.0, 0.0, 0.0, 0.0, 0.0, 0.0, 0.0, 0.0, 0.0, 0.0, 0.0, 0.0, 0.0, 0.0, 0.0, 0.0, 0.0, 0.0, 0.0, 0.0, 0.0, 0.0, 0.0, 0.0, 0.0, 0.0, 0.0, 0.0, 0.0, 0.0, 0.0, 0.0, 0.0, 0.0, 0.0, 0.0, 0.0, 0.0, 0.0, 0.0, 0.0, 0.0, 0.0, 0.0, 0.0, 0.0, 0.09166666666666666, 0.09444444444444444, 0.09722222222222222, 0.09907407407407408, 0.09907407407407408, 0.09907407407407408, 0.09907407407407408, 0.09907407407407408, 0.09907407407407408, 0.09907407407407408, 0.10833333333333334]",643
-0.3,-0.3,1.0,1.0,"[0.0, 0.0, 0.0, 0.0, 0.0, 0.0, 0.0, 0.0, 0.0, 0.0, 0.0, 0.0, 0.0, 0.0, 0.0, 0.0, 0.0, 0.0, 0.0, 0.03888888888888889, 0.03888888888888889, 0.03888888888888889, 0.03888888888888889, 0.03888888888888889, 0.03888888888888889, 0.03888888888888889, 0.03888888888888889, 0.03888888888888889, 0.03888888888888889, 0.03888888888888889, 0.03888888888888889, 0.03888888888888889, -0.05092592592592592, -0.30925925925925923]","[0.0, 0.0, 0.0, 0.0, 0.0, 0.0, 0.0, 0.0, 0.0, 0.0, 0.0, 0.0, 0.0, 0.0, 0.0, 0.0, 0.0, 0.0, 0.0, 0.1648148148148148, 0.1648148148148148, 0.1648148148148148, 0.1648148148148148, 0.1648148148148148, 0.1648148148148148, 0.1648148148148148, 0.1648148148148148, 0.1648148148148148, 0.1648148148148148, 0.1648148148148148, 0.1648148148148148, 0.16018518518518518, 0.07592592592592592, -0.041666666666666664]",643
0.3,0.3,2.0,30.0,"[0.0, 0.0, 0.0, 0.0, 0.0, 0.0, 0.0, 0.0, 0.0, 0.0, 0.0, 0.0, 0.0, 0.0, 0.0, 0.0, 0.0, 0.0, 0.0, 0.0, -0.016666666666666666, -0.011111111111111112, -0.011111111111111112, -0.011111111111111112, -0.011111111111111112, 0.049074074074074076]","[0.0, 0.0, 0.0, 0.0, 0.0, 0.0, 0.0, 0.0, 0.0, 0.0, 0.0, 0.0, 0.0, 0.0, 0.0, 0.0, 0.0, 0.0, 0.0, 0.0, 0.2324074074074074, 0.22962962962962963, 0.22962962962962963, 0.22962962962962963, 0.22962962962962963, 0.23148148148148148]",643
0.3,-0.3,3.0,13.0,"[0.0, 0.0, 0.0, 0.0, 0.0, 0.0, 0.0, 0.0, 0.0, 0.0, 0.0, 0.0, 0.0, 0.0, 0.0, 0.0, 0.0, 0.0, -0.2351851851851852, -0.2351851851851852, -0.2351851851851852, -0.2351851851851852, -0.2351851851851852]","[0.0, 0.0, 0.0, 0.0, 0.0, 0.0, 0.0, 0.0, 0.0, 0.0, 0.0, 0.0, 0.0, 0.0, 0.0, 0.0, 0.0, 0.0, 0.3055555555555556, 0.3055555555555556, 0.3055555555555556, 0.3055555555555556, 0.30462962962962964]",643
0.3,0.3,4.0,35.0,"[0.0, 0.0, 0.0, 0.0, 0.0, 0.0, 0.0, 0.0, 0.0, 0.0, 0.0, 0.0, 0.0, 0.0, 0.0, 0.0, 0.0, 0.0, 0.0, -0.5037037037037037, -0.5055555555555555, -0.5037037037037037, -0.49537037037037035, -0.49537037037037035, -0.49537037037037035, -0.4564814814814815]","[0.0, 0.0, 0.0, 0.0, 0.0, 0.0, 0.0, 0.0, 0.0, 0.0, 0.0, 0.0, 0.0, 0.0, 0.0, 0.0, 0.0, 0.0, 0.0, 0.19907407407407407, 0.18981481481481483, 0.18611111111111112, 0.1787037037037037, 0.1787037037037037, 0.1787037037037037, 0.15185185185185185]",643
0.3,-0.3,5.0,75.0,"[0.0, 0.0, 0.0, 0.0, 0.0, 0.0, 0.0, 0.0, 0.0, 0.0, 0.0, 0.0, 0.0, 0.0, 0.0, -0.4583333333333333, -0.4583333333333333, -0.4583333333333333, -0.4583333333333333, -0.4583333333333333, -0.4583333333333333, -0.4583333333333333, -0.4583333333333333, -0.4583333333333333, -0.4583333333333333, -0.4583333333333333, -0.4287037037037037]","[0.0, 0.0, 0.0, 0.0, 0.0, 0.0, 0.0, 0.0, 0.0, 0.0, 0.0, 0.0, 0.0, 0.0, 0.0, 0.23425925925925925, 0.23425925925925925, 0.23425925925925925, 0.23425925925925925, 0.23425925925925925, 0.23425925925925925, 0.23425925925925925, 0.23425925925925925, 0.23425925925925925, 0.23425925925925925, 0.23425925925925925, 0.21388888888888888]",643
-0.3,0.3,6.0,0.0,"[0.0, 0.0, 0.0, 0.0, 0.0, 0.0, 0.0, 0.0, 0.0, 0.0, 0.0, 0.0, 0.0, 0.0, 0.0, 0.0, 0.0, 0.0, 0.0, 0.0, 0.0, 0.0, 0.0, -0.475, -0.475, -0.475, -0.475, -0.475, -0.475, -0.475, -0.475, -0.475, -0.475, -0.475, -0.475, -0.4305555555555556]","[0.0, 0.0, 0.0, 0.0, 0.0, 0.0, 0.0, 0.0, 0.0, 0.0, 0.0, 0.0, 0.0, 0.0, 0.0, 0.0, 0.0, 0.0, 0.0, 0.0, 0.0, 0.0, 0.0, 0.1712962962962963, 0.1712962962962963, 0.1712962962962963, 0.1712962962962963, 0.1712962962962963, 0.1712962962962963, 0.1712962962962963, 0.1712962962962963, 0.1712962962962963, 0.1712962962962963, 0.1712962962962963, 0.1712962962962963, 0.15648148148148147]",643
-0.3,-0.3,7.0,52.0,"[0.0, 0.0, 0.0, 0.0, 0.0, 0.0, 0.0, 0.0, 0.0, 0.0, 0.0, 0.0, 0.0, 0.0, 0.0, 0.0, 0.0, 0.0, -0.16018518518518518, -0.16111111111111112, -0.1685185185185185, -0.17685185185185184, -0.18888888888888888, -0.2101851851851852, -0.24166666666666667, -0.2796296296296296, -0.30462962962962964, -0.30462962962962964, -0.30462962962962964, -0.30462962962962964, -0.30462962962962964, -0.30462962962962964, -0.30462962962962964, -0.487962962962963]","[0.0, 0.0, 0.0, 0.0, 0.0, 0.0, 0.0, 0.0, 0.0, 0.0, 0.0, 0.0, 0.0, 0.0, 0.0, 0.0, 0.0, 0.0, 0.14722222222222223, 0.1398148148148148, 0.13425925925925927, 0.12962962962962962, 0.12314814814814815, 0.11203703703703703, 0.09537037037037037, 0.075, 0.062037037037037036, 0.062037037037037036, 0.062037037037037036, 0.062037037037037036, 0.062037037037037036, 0.062037037037037036, 0.062037037037037036, -0.041666666666666664]",643
0.3,0.3,8.0,7.0,"[0.0, 0.0, 0.0, 0.0, 0.0, 0.0, 0.0, 0.0, 0.0, 0.0, 0.0, 0.0, 0.0, 0.0, 0.0, 0.0, 0.0, 0.0, 0.0, 0.0, 0.0, 0.0, 0.0, 0.0, 0.0, 0.0, 0.0, 0.0, 0.0, 0.0, 0.0, 0.0, 0.0, -0.3101851851851852, -0.30648148148148147, -0.30648148148148147, -0.30648148148148147, -0.30648148148148147, -0.30648148148148147, -0.30648148148148147, -0.30648148148148147, -0.2796296296296296]","[0.0, 0.0, 0.0, 0.0, 0.0, 0.0, 0.0, 0.0, 0.0, 0.0, 0.0, 0.0, 0.0, 0.0, 0.0, 0.0, 0.0, 0.0, 0.0, 0.0, 0.0, 0.0, 0.0, 0.0, 0.0, 0.0, 0.0, 0.0, 0.0, 0.0, 0.0, 0.0, 0.0, -0.09444444444444444, -0.09537037037037037, -0.09351851851851851, -0.09259259259259259, -0.09259259259259259, -0.09259259259259259, -0.09259259259259259, -0.09259259259259259, -0.06759259259259259]",643
0.3,-0.3,9.0,81.0,"[0.0, 0.0, 0.0, 0.0, 0.0, 0.0, 0.0, 0.0, 0.0, 0.0, 0.0, 0.0, 0.0, 0.0, 0.0, -0.34444444444444444, -0.33611111111111114, -0.33611111111111114, -0.33611111111111114, -0.33611111111111114, -0.33611111111111114, -0.33611111111111114]","[0.0, 0.0, 0.0, 0.0, 0.0, 0.0, 0.0, 0.0, 0.0, 0.0, 0.0, 0.0, 0.0, 0.0, 0.0, 0.3101851851851852, 0.3055555555555556, 0.3055555555555556, 0.3055555555555556, 0.3055555555555556, 0.3055555555555556, 0.3055555555555556]",643
-0.3,-0.3,10.0,52.0,"[0.0, 0.0, 0.0, 0.0, 0.0, 0.0, 0.0, 0.0, 0.0, 0.0, 0.0, 0.0, 0.0, 0.0, 0.0, 0.0, 0.0, 0.0, 0.0, 0.0, -0.17222222222222222, -0.17222222222222222, -0.17222222222222222, -0.17222222222222222, -0.17222222222222222, -0.22592592592592592]","[0.0, 0.0, 0.0, 0.0, 0.0, 0.0, 0.0, 0.0, 0.0, 0.0, 0.0, 0.0, 0.0, 0.0, 0.0, 0.0, 0.0, 0.0, 0.0, 0.0, 0.062037037037037036, 0.062037037037037036, 0.062037037037037036, 0.062037037037037036, 0.062037037037037036, 0.032407407407407406]",643
-0.3,0.3,11.0,26.0,"[0.0, 0.0, 0.0, 0.0, 0.0, 0.0, 0.0, 0.0, 0.0, 0.0, 0.0, 0.0, 0.0, 0.0, 0.0, 0.0, -0.2759259259259259, -0.27314814814814814, -0.27314814814814814, -0.27314814814814814, -0.27314814814814814, -0.27314814814814814, -0.27314814814814814, -0.26666666666666666]","[0.0, 0.0, 0.0, 0.0, 0.0, 0.0, 0.0, 0.0, 0.0, 0.0, 0.0, 0.0, 0.0, 0.0, 0.0, 0.0, 0.014814814814814815, 0.013888888888888888, 0.013888888888888888, 0.013888888888888888, 0.013888888888888888, 0.013888888888888888, 0.013888888888888888, 0.025925925925925925]",643
-0.3,0.3,12.0,40.0,"[0.0, 0.0, 0.0, 0.0, 0.0, 0.0, 0.0, 0.0, 0.0, 0.0, 0.0, 0.0, 0.0, 0.0, 0.0, 0.0, 0.0, 0.0, -0.21944444444444444, -0.21944444444444444, -0.21944444444444444, -0.21944444444444444, -0.21944444444444444, -0.21944444444444444, -0.24722222222222223]","[0.0, 0.0, 0.0, 0.0, 0.0, 0.0, 0.0, 0.0, 0.0, 0.0, 0.0, 0.0, 0.0, 0.0, 0.0, 0.0, 0.0, 0.0, 0.09166666666666666, 0.09074074074074075, 0.09074074074074075, 0.09074074074074075, 0.09074074074074075, 0.09074074074074075, 0.0824074074074074]",643
-0.3,0.3,13.0,23.0,"[0.0, 0.0, 0.0, 0.0, 0.0, 0.0, 0.0, 0.0, 0.0, 0.0, 0.0, 0.0, 0.0, 0.0, 0.0, 0.0, 0.0, 0.0, 0.0, 0.0, 0.0, 0.0, 0.0, 0.0, 0.0, 0.0, 0.0, 0.0]","[0.0, 0.0, 0.0, 0.0, 0.0, 0.0, 0.0, 0.0, 0.0, 0.0, 0.0, 0.0, 0.0, 0.0, 0.0, 0.0, 0.0, 0.0, 0.0, 0.0, 0.0, 0.0, 0.0, 0.0, 0.0, 0.0, 0.0, 0.0]",643
0.3,-0.3,14.0,71.0,"[0.0, 0.0, 0.0, 0.0, 0.0, 0.0, 0.0, 0.0, 0.0, 0.0, 0.0, 0.0, 0.0, 0.0, 0.0, 0.0, 0.0, 0.0, -0.3787037037037037, -0.3888888888888889, -0.4009259259259259, -0.412962962962963, -0.41944444444444445, -0.41944444444444445, -0.41944444444444445, -0.41944444444444445, -0.41944444444444445, -0.42407407407407405]","[0.0, 0.0, 0.0, 0.0, 0.0, 0.0, 0.0, 0.0, 0.0, 0.0, 0.0, 0.0, 0.0, 0.0, 0.0, 0.0, 0.0, 0.0, 0.30648148148148147, 0.30185185185185187, 0.2972222222222222, 0.2935185185185185, 0.29074074074074074, 0.29074074074074074, 0.29074074074074074, 0.29074074074074074, 0.29074074074074074, 0.28703703703703703]",643
-0.3,-0.3,15.0,77.0,"[0.0, 0.0, 0.0, 0.0, 0.0, 0.0, 0.0, 0.0, 0.0, 0.0, 0.0, 0.0, 0.0, 0.0, 0.0, 0.0, 0.0, 0.0, 0.0, 0.0, 0.0, 0.0, 0.0, 0.0, 0.0, -0.05, -0.05, -0.05, -0.05, -0.049074074074074076, -0.04814814814814815, -0.046296296296296294, -0.04537037037037037, -0.04351851851851852, -0.04259259259259259, -0.040740740740740744, -0.03796296296296296, -0.032407407407407406, -0.025925925925925925, -0.025, -0.025, -0.025, -0.025, -0.025, -0.025, -0.01574074074074074]","[0.0, 0.0, 0.0, 0.0, 0.0, 0.0, 0.0, 0.0, 0.0, 0.0, 0.0, 0.0, 0.0, 0.0, 0.0, 0.0, 0.0, 0.0, 0.0, 0.0, 0.0, 0.0, 0.0, 0.0, 0.0, 0.33611111111111114, 0.33611111111111114, 0.337037037037037, 0.337037037037037, 0.337037037037037, 0.33796296296296297, 0.3388888888888889, 0.3388888888888889, 0.3388888888888889, 0.3388888888888889, 0.337037037037037, 0.33611111111111114, 0.3351851851851852, 0.3333333333333333, 0.33240740740740743, 0.33240740740740743, 0.33240740740740743, 0.33240740740740743, 0.33240740740740743, 0.33240740740740743, 0.3277777777777778]",643
-0.3,-0.3,0.0,34.0,"[0.0, 0.0, 0.0, 0.0, 0.0, 0.0, 0.0, 0.0, 0.0, 0.0, 0.0, 0.0, 0.0, 0.0, 0.0, 0.0, 0.0, 0.0, 0.0, 0.0, 0.0, 0.0, 0.0, 0.0, 0.0, -0.11296296296296296, -0.11018518518518519, -0.1037037037037037, -0.09537037037037037, -0.08611111111111111, -0.07777777777777778, -0.07685185185185185, -0.07685185185185185, -0.07685185185185185, -0.07685185185185185, -0.07685185185185185, -0.07685185185185185, -0.07685185185185185, -0.07685185185185185, -0.06944444444444445, -0.09166666666666666, -0.1037037037037037, -0.11018518518518519, -0.11574074074074074, -0.12222222222222222, -0.12962962962962962, -0.13518518518518519, -0.14166666666666666, -0.14814814814814814, -0.15555555555555556, -0.16111111111111112, -0.1675925925925926, -0.17314814814814813, -0.17685185185185184, -0.1814814814814815, -0.18518518518518517, -0.18888888888888888]","[0.0, 0.0, 0.0, 0.0, 0.0, 0.0, 0.0, 0.0, 0.0, 0.0, 0.0, 0.0, 0.0, 0.0, 0.0, 0.0, 0.0, 0.0, 0.0, 0.0, 0.0, 0.0, 0.0, 0.0, 0.0, 0.000925925925925926, 0.000925925925925926, 0.002777777777777778, 0.005555555555555556, 0.007407407407407408, 0.008333333333333333, 0.008333333333333333, 0.008333333333333333, 0.008333333333333333, 0.008333333333333333, 0.008333333333333333, 0.008333333333333333, 0.008333333333333333, 0.008333333333333333, 0.007407407407407408, 0.012962962962962963, 0.016666666666666666, 0.018518518518518517, 0.021296296296296296, 0.023148148148148147, 0.026851851851851852, 0.02962962962962963, 0.032407407407407406, 0.03518518518518519, 0.03888888888888889, 0.041666666666666664, 0.04537037037037037, 0.04814814814814815, 0.05185185185185185, 0.05648148148148148, 0.06111111111111111, 0.06574074074074074]",644
-0.3,0.3,1.0,33.0,"[0.0, 0.0, 0.0, 0.0, 0.0, 0.0, 0.0, 0.0, 0.0, 0.0, 0.0, 0.0, 0.0, 0.0, 0.0, 0.0, 0.0, 0.0, 0.0, 0.0, 0.0, 0.0, 0.0, 0.0, 0.0, 0.0, 0.0, 0.0, 0.0, 0.0, 0.0, 0.0, 0.0, 0.0, 0.0, 0.0, 0.0, 0.0, 0.0, 0.0, 0.0, 0.0, 0.0, 0.0, 0.0, 0.0, 0.0, -0.09537037037037037, -0.09537037037037037, -0.09444444444444444, -0.09444444444444444, -0.09444444444444444, -0.09444444444444444, -0.09444444444444444, -0.09444444444444444, -0.09444444444444444, -0.09722222222222222, -0.13425925925925927, -0.15555555555555556, -0.1685185185185185, -0.17962962962962964, -0.19537037037037036]","[0.0, 0.0, 0.0, 0.0, 0.0, 0.0, 0.0, 0.0, 0.0, 0.0, 0.0, 0.0, 0.0, 0.0, 0.0, 0.0, 0.0, 0.0, 0.0, 0.0, 0.0, 0.0, 0.0, 0.0, 0.0, 0.0, 0.0, 0.0, 0.0, 0.0, 0.0, 0.0, 0.0, 0.0, 0.0, 0.0, 0.0, 0.0, 0.0, 0.0, 0.0, 0.0, 0.0, 0.0, 0.0, 0.0, 0.0, 0.011111111111111112, 0.012037037037037037, 0.012962962962962963, 0.012962962962962963, 0.012962962962962963, 0.012962962962962963, 0.012962962962962963, 0.012962962962962963, 0.012962962962962963, 0.016666666666666666, 0.03611111111111111, 0.04814814814814815, 0.05462962962962963, 0.06111111111111111, 0.06851851851851852]",644
-0.3,-0.3,2.0,57.0,"[0.0, 0.0, 0.0, 0.0, 0.0, 0.0, 0.0, 0.0, 0.0, 0.0, 0.0, 0.0, 0.0, 0.0, 0.0, 0.0, 0.0, 0.0, 0.0, 0.0, -0.16203703703703703, -0.16111111111111112, -0.16203703703703703, -0.16203703703703703, -0.16203703703703703, -0.16203703703703703, -0.16203703703703703, -0.16203703703703703, -0.17777777777777778]","[0.0, 0.0, 0.0, 0.0, 0.0, 0.0, 0.0, 0.0, 0.0, 0.0, 0.0, 0.0, 0.0, 0.0, 0.0, 0.0, 0.0, 0.0, 0.0, 0.0, 0.15092592592592594, 0.14629629629629629, 0.14166666666666666, 0.14166666666666666, 0.14166666666666666, 0.14166666666666666, 0.14166666666666666, 0.14166666666666666, 0.12037037037037036]",644
-0.3,0.3,3.0,34.0,"[0.0, 0.0, 0.0, 0.0, 0.0, 0.0, 0.0, 0.0, 0.0, 0.0, 0.0, 0.0, 0.0, 0.0, 0.0, 0.0, 0.0, 0.0, 0.0, 0.0, 0.0, 0.0, 0.0, 0.0, 0.0, -0.08888888888888889, -0.08888888888888889, -0.08796296296296297, -0.08611111111111111, -0.08518518518518518, -0.08518518518518518, -0.08518518518518518, -0.08518518518518518, -0.08518518518518518, -0.08518518518518518, -0.08518518518518518, -0.08518518518518518, -0.08518518518518518, -0.08518518518518518, -0.08518518518518518, -0.08796296296296297, -0.11203703703703703, -0.12777777777777777, -0.1398148148148148, -0.1527777777777778, -0.16666666666666666, -0.17962962962962964, -0.19444444444444445]","[0.0, 0.0, 0.0, 0.0, 0.0, 0.0, 0.0, 0.0, 0.0, 0.0, 0.0, 0.0, 0.0, 0.0, 0.0, 0.0, 0.0, 0.0, 0.0, 0.0, 0.0, 0.0, 0.0, 0.0, 0.0, -0.023148148148148147, -0.024074074074074074, -0.023148148148148147, -0.021296296296296296, -0.020370370370370372, -0.020370370370370372, -0.020370370370370372, -0.020370370370370372, -0.020370370370370372, -0.020370370370370372, -0.020370370370370372, -0.020370370370370372, -0.020370370370370372, -0.020370370370370372, -0.020370370370370372, -0.014814814814814815, 0.004629629629629629, 0.019444444444444445, 0.028703703703703703, 0.03888888888888889, 0.049074074074074076, 0.06018518518518518, 0.0712962962962963]",644
0.3,-0.3,4.0,79.0,"[0.0, 0.0, 0.0, 0.0, 0.0, 0.0, 0.0, 0.0, 0.0, 0.0, 0.0, 0.0, 0.0, 0.0, 0.0, 0.0, 0.0, 0.0, 0.0, 0.0, 0.0, 0.0, -0.3175925925925926, -0.3148148148148148, -0.3148148148148148, -0.3148148148148148, -0.3148148148148148, -0.3148148148148148, -0.3148148148148148, -0.31296296296296294]","[0.0, 0.0, 0.0, 0.0, 0.0, 0.0, 0.0, 0.0, 0.0, 0.0, 0.0, 0.0, 0.0, 0.0, 0.0, 0.0, 0.0, 0.0, 0.0, 0.0, 0.0, 0.0, 0.22685185185185186, 0.22407407407407406, 0.22407407407407406, 0.22407407407407406, 0.22407407407407406, 0.22407407407407406, 0.22407407407407406, 0.2222222222222222]",644
0.3,0.3,5.0,11.0,"[0.0, 0.0, 0.0, 0.0, 0.0, 0.0, 0.0, 0.0, 0.0, 0.0, 0.0, 0.0, 0.0, 0.0, 0.0, 0.0, 0.0, 0.0, 0.0, 0.0, 0.0, 0.0, 0.0, 0.0, 0.0, 0.0, 0.0, 0.0, -0.3351851851851852, -0.3314814814814815, -0.32685185185185184, -0.32685185185185184, -0.32685185185185184, -0.32685185185185184, -0.32685185185185184, -0.32685185185185184, -0.31574074074074077]","[0.0, 0.0, 0.0, 0.0, 0.0, 0.0, 0.0, 0.0, 0.0, 0.0, 0.0, 0.0, 0.0, 0.0, 0.0, 0.0, 0.0, 0.0, 0.0, 0.0, 0.0, 0.0, 0.0, 0.0, 0.0, 0.0, 0.0, 0.0, -0.08796296296296297, -0.08518518518518518, -0.0824074074074074, -0.08148148148148149, -0.08148148148148149, -0.08148148148148149, -0.08148148148148149, -0.08148148148148149, -0.07222222222222222]",644
-0.3,-0.3,6.0,56.0,"[0.0, 0.0, 0.0, 0.0, 0.0, 0.0, 0.0, 0.0, 0.0, 0.0, 0.0, 0.0, 0.0, 0.0, 0.0, 0.0, 0.0, 0.0, 0.0, 0.0, 0.0, 0.0, -0.024074074074074074, -0.024074074074074074, -0.024074074074074074, -0.024074074074074074, -0.024074074074074074, -0.024074074074074074, -0.024074074074074074, -0.024074074074074074, -0.024074074074074074, -0.024074074074074074, -0.024074074074074074, -0.023148148148148147]","[0.0, 0.0, 0.0, 0.0, 0.0, 0.0, 0.0, 0.0, 0.0, 0.0, 0.0, 0.0, 0.0, 0.0, 0.0, 0.0, 0.0, 0.0, 0.0, 0.0, 0.0, 0.0, 0.32685185185185184, 0.32222222222222224, 0.3194444444444444, 0.3194444444444444, 0.3194444444444444, 0.3194444444444444, 0.3194444444444444, 0.3194444444444444, 0.3194444444444444, 0.3194444444444444, 0.3194444444444444, 0.3138888888888889]",644
0.3,0.3,7.0,11.0,"[0.0, 0.0, 0.0, 0.0, 0.0, 0.0, 0.0, 0.0, 0.0, 0.0, 0.0, 0.0, 0.0, 0.0, 0.0, 0.0, 0.0, -0.4935185185185185, -0.4888888888888889, -0.48333333333333334, -0.475, -0.4675925925925926, -0.45925925925925926, -0.45, -0.44166666666666665, -0.43333333333333335, -0.42777777777777776, -0.4212962962962963, -0.4148148148148148, -0.41388888888888886, -0.41388888888888886, -0.41388888888888886, -0.41388888888888886, -0.41388888888888886, -0.41388888888888886, -0.4064814814814815]","[0.0, 0.0, 0.0, 0.0, 0.0, 0.0, 0.0, 0.0, 0.0, 0.0, 0.0, 0.0, 0.0, 0.0, 0.0, 0.0, 0.0, -0.03888888888888889, -0.046296296296296294, -0.05462962962962963, -0.06111111111111111, -0.06388888888888888, -0.06574074074074074, -0.06759259259259259, -0.06851851851851852, -0.0712962962962963, -0.07314814814814814, -0.07407407407407407, -0.075, -0.075, -0.075, -0.075, -0.075, -0.075, -0.075, -0.07592592592592592]",644
0.3,-0.3,8.0,79.0,"[0.0, 0.0, 0.0, 0.0, 0.0, 0.0, 0.0, 0.0, 0.0, 0.0, 0.0, 0.0, 0.0, 0.0, 0.0, 0.0, 0.0, 0.0, 0.0, 0.0, 0.0, -0.2824074074074074, -0.2814814814814815, -0.27870370370370373, -0.2777777777777778, -0.2777777777777778, -0.2777777777777778, -0.2777777777777778, -0.2777777777777778, -0.2777777777777778, -0.2777777777777778, -0.2777777777777778, -0.27314814814814814]","[0.0, 0.0, 0.0, 0.0, 0.0, 0.0, 0.0, 0.0, 0.0, 0.0, 0.0, 0.0, 0.0, 0.0, 0.0, 0.0, 0.0, 0.0, 0.0, 0.0, 0.0, 0.4148148148148148, 0.4148148148148148, 0.41388888888888886, 0.412962962962963, 0.412962962962963, 0.412962962962963, 0.412962962962963, 0.412962962962963, 0.412962962962963, 0.412962962962963, 0.412962962962963, 0.41203703703703703]",644
0.3,0.3,9.0,11.0,"[0.0, 0.0, 0.0, 0.0, 0.0, 0.0, 0.0, 0.0, 0.0, 0.0, 0.0, 0.0, 0.0, 0.0, 0.0, 0.0, 0.0, 0.0, 0.0, 0.0, 0.0, 0.0, 0.0, 0.0, 0.0, 0.0, -0.25462962962962965, -0.25462962962962965, -0.25462962962962965, -0.25277777777777777, -0.25277777777777777, -0.25277777777777777, -0.25277777777777777, -0.25277777777777777, -0.25277777777777777, -0.25]","[0.0, 0.0, 0.0, 0.0, 0.0, 0.0, 0.0, 0.0, 0.0, 0.0, 0.0, 0.0, 0.0, 0.0, 0.0, 0.0, 0.0, 0.0, 0.0, 0.0, 0.0, 0.0, 0.0, 0.0, 0.0, 0.0, 0.013888888888888888, 0.013888888888888888, 0.012962962962962963, 0.013888888888888888, 0.013888888888888888, 0.013888888888888888, 0.013888888888888888, 0.013888888888888888, 0.013888888888888888, 0.014814814814814815]",644
-0.3,0.3,10.0,34.0,"[0.0, 0.0, 0.0, 0.0, 0.0, 0.0, 0.0, 0.0, 0.0, 0.0, 0.0, 0.0, 0.0, 0.0, 0.0, 0.0, 0.0, 0.0, 0.0, 0.0, 0.0, 0.0, 0.0, 0.0, 0.0, 0.0, 0.0, 0.0, 0.0, -0.025925925925925925, -0.025925925925925925, -0.025925925925925925, -0.027777777777777776, -0.027777777777777776, -0.027777777777777776, -0.027777777777777776, -0.027777777777777776, -0.027777777777777776, -0.03611111111111111, -0.07962962962962963, -0.10648148148148148, -0.12962962962962962, -0.15092592592592594]","[0.0, 0.0, 0.0, 0.0, 0.0, 0.0, 0.0, 0.0, 0.0, 0.0, 0.0, 0.0, 0.0, 0.0, 0.0, 0.0, 0.0, 0.0, 0.0, 0.0, 0.0, 0.0, 0.0, 0.0, 0.0, 0.0, 0.0, 0.0, 0.0, 0.04537037037037037, 0.046296296296296294, 0.04722222222222222, 0.04722222222222222, 0.04722222222222222, 0.04722222222222222, 0.04722222222222222, 0.04722222222222222, 0.04722222222222222, 0.05462962962962963, 0.09259259259259259, 0.11481481481481481, 0.13333333333333333, 0.15]",644
-0.3,0.3,11.0,34.0,"[0.0, 0.0, 0.0, 0.0, 0.0, 0.0, 0.0, 0.0, 0.0, 0.0, 0.0, 0.0, 0.0, 0.0, 0.0, 0.0, 0.0, 0.0, 0.0, 0.0, 0.0, 0.0, 0.0, 0.0, -0.06018518518518518, -0.06296296296296296, -0.06296296296296296, -0.06296296296296296, -0.06296296296296296, -0.06296296296296296, -0.08333333333333333, -0.17962962962962964]","[0.0, 0.0, 0.0, 0.0, 0.0, 0.0, 0.0, 0.0, 0.0, 0.0, 0.0, 0.0, 0.0, 0.0, 0.0, 0.0, 0.0, 0.0, 0.0, 0.0, 0.0, 0.0, 0.0, 0.0, 0.01574074074074074, 0.01574074074074074, 0.01574074074074074, 0.01574074074074074, 0.01574074074074074, 0.01574074074074074, 0.024074074074074074, 0.08981481481481482]",644
0.3,-0.3,12.0,79.0,"[0.0, 0.0, 0.0, 0.0, 0.0, 0.0, 0.0, 0.0, 0.0, 0.0, 0.0, 0.0, 0.0, 0.0, 0.0, 0.0, 0.0, 0.0, 0.0, 0.0, 0.0, 0.0, 0.0, 0.0, 0.0, 0.0, 0.0, 0.0, -0.44166666666666665, -0.44074074074074077, -0.4388888888888889, -0.4361111111111111, -0.4324074074074074, -0.42962962962962964, -0.42592592592592593, -0.4203703703703704, -0.41574074074074074, -0.4111111111111111, -0.4111111111111111, -0.4111111111111111, -0.4111111111111111, -0.4111111111111111, -0.4111111111111111, -0.40185185185185185]","[0.0, 0.0, 0.0, 0.0, 0.0, 0.0, 0.0, 0.0, 0.0, 0.0, 0.0, 0.0, 0.0, 0.0, 0.0, 0.0, 0.0, 0.0, 0.0, 0.0, 0.0, 0.0, 0.0, 0.0, 0.0, 0.0, 0.0, 0.0, 0.2916666666666667, 0.2861111111111111, 0.2814814814814815, 0.2740740740740741, 0.2657407407407407, 0.25555555555555554, 0.24814814814814815, 0.24074074074074073, 0.2361111111111111, 0.2324074074074074, 0.2324074074074074, 0.2324074074074074, 0.2324074074074074, 0.2324074074074074, 0.2324074074074074, 0.225]",644
0.3,-0.3,13.0,79.0,"[0.0, 0.0, 0.0, 0.0, 0.0, 0.0, 0.0, 0.0, 0.0, 0.0, 0.0, 0.0, 0.0, 0.0, 0.0, 0.0, 0.0, 0.0, 0.0, 0.0, 0.0, 0.0, -0.4824074074074074, -0.48148148148148145, -0.48055555555555557, -0.4787037037037037, -0.47685185185185186, -0.475, -0.4722222222222222, -0.4685185185185185, -0.4675925925925926, -0.4675925925925926, -0.4675925925925926, -0.4675925925925926, -0.4675925925925926, -0.4675925925925926, -0.46574074074074073]","[0.0, 0.0, 0.0, 0.0, 0.0, 0.0, 0.0, 0.0, 0.0, 0.0, 0.0, 0.0, 0.0, 0.0, 0.0, 0.0, 0.0, 0.0, 0.0, 0.0, 0.0, 0.0, 0.287962962962963, 0.2824074074074074, 0.2777777777777778, 0.2712962962962963, 0.2638888888888889, 0.2574074074074074, 0.25092592592592594, 0.2462962962962963, 0.24351851851851852, 0.24351851851851852, 0.24351851851851852, 0.24351851851851852, 0.24351851851851852, 0.24351851851851852, 0.24166666666666667]",644
-0.3,-0.3,14.0,56.0,"[0.0, 0.0, 0.0, 0.0, 0.0, 0.0, 0.0, 0.0, 0.0, 0.0, 0.0, 0.0, 0.0, 0.0, 0.0, 0.0, 0.0, 0.0, 0.0, 0.0, 0.0, 0.0, 0.0, 0.0, 0.0, 0.0, 0.0, 0.0, 0.0, 0.0, 0.0, -0.0962962962962963, -0.0962962962962963, -0.09537037037037037, -0.09259259259259259, -0.09166666666666666, -0.09166666666666666, -0.09166666666666666, -0.09166666666666666, -0.09166666666666666, -0.09166666666666666, -0.09166666666666666, -0.08981481481481482]","[0.0, 0.0, 0.0, 0.0, 0.0, 0.0, 0.0, 0.0, 0.0, 0.0, 0.0, 0.0, 0.0, 0.0, 0.0, 0.0, 0.0, 0.0, 0.0, 0.0, 0.0, 0.0, 0.0, 0.0, 0.0, 0.0, 0.0, 0.0, 0.0, 0.0, 0.0, 0.2824074074074074, 0.28055555555555556, 0.27870370370370373, 0.27685185185185185, 0.27685185185185185, 0.27685185185185185, 0.27685185185185185, 0.27685185185185185, 0.27685185185185185, 0.27685185185185185, 0.27685185185185185, 0.26851851851851855]",644
0.3,0.3,15.0,12.0,"[0.0, 0.0, 0.0, 0.0, 0.0, 0.0, 0.0, 0.0, 0.0, 0.0, 0.0, 0.0, 0.0, 0.0, 0.0, 0.0, 0.0, 0.0, 0.0, 0.0, 0.0, 0.0, 0.0, 0.0, -0.4925925925925926, -0.4888888888888889, -0.4888888888888889, -0.4888888888888889, -0.4888888888888889, -0.4888888888888889, -0.4888888888888889, -0.48148148148148145]","[0.0, 0.0, 0.0, 0.0, 0.0, 0.0, 0.0, 0.0, 0.0, 0.0, 0.0, 0.0, 0.0, 0.0, 0.0, 0.0, 0.0, 0.0, 0.0, 0.0, 0.0, 0.0, 0.0, 0.0, -0.2175925925925926, -0.21666666666666667, -0.21666666666666667, -0.21666666666666667, -0.21666666666666667, -0.21666666666666667, -0.21666666666666667, -0.21574074074074073]",644
0.3,0.3,0.0,23.0,"[0.0, 0.0, 0.0, 0.0, 0.0, 0.0, 0.0, 0.0, 0.0, 0.0, 0.0, 0.0, 0.0, 0.0, 0.0, 0.0, 0.0, 0.0, 0.0, 0.0, 0.0, 0.0, 0.0, 0.0, 0.0, 0.0, 0.0, 0.0, 0.0, 0.0, 0.0, 0.0, 0.0, 0.0, 0.0, 0.0, 0.0, 0.0, 0.0, 0.0, 0.0, 0.0, 0.0, 0.0, 0.0, 0.0, 0.0, 0.0, 0.0, 0.0, 0.0, 0.0, 0.0, 0.0, 0.0, 0.0, 0.0, 0.0, 0.0, 0.0, 0.0, 0.0, 0.0, 0.0, 0.0, 0.0, 0.0, 0.0, 0.0, 0.0, 0.0, 0.0, 0.0, 0.0, 0.0, 0.0, 0.0, 0.0, 0.0, 0.0, 0.0, -0.14351851851851852, -0.1425925925925926, -0.14166666666666666, -0.1388888888888889, -0.13703703703703704, -0.13425925925925927, -0.13148148148148148, -0.13148148148148148, -0.13148148148148148, -0.13148148148148148, -0.13148148148148148, -0.13148148148148148, -0.13148148148148148, -0.13148148148148148, -0.13148148148148148, -0.13148148148148148, -0.13148148148148148, -0.13148148148148148, -0.13148148148148148, -0.13148148148148148, -0.13148148148148148, -0.13148148148148148, -0.13148148148148148, -0.13148148148148148, -0.13148148148148148, -0.13148148148148148, -0.13148148148148148, -0.13148148148148148, -0.13148148148148148, -0.13148148148148148, -0.13148148148148148, -0.1287037037037037]","[0.0, 0.0, 0.0, 0.0, 0.0, 0.0, 0.0, 0.0, 0.0, 0.0, 0.0, 0.0, 0.0, 0.0, 0.0, 0.0, 0.0, 0.0, 0.0, 0.0, 0.0, 0.0, 0.0, 0.0, 0.0, 0.0, 0.0, 0.0, 0.0, 0.0, 0.0, 0.0, 0.0, 0.0, 0.0, 0.0, 0.0, 0.0, 0.0, 0.0, 0.0, 0.0, 0.0, 0.0, 0.0, 0.0, 0.0, 0.0, 0.0, 0.0, 0.0, 0.0, 0.0, 0.0, 0.0, 0.0, 0.0, 0.0, 0.0, 0.0, 0.0, 0.0, 0.0, 0.0, 0.0, 0.0, 0.0, 0.0, 0.0, 0.0, 0.0, 0.0, 0.0, 0.0, 0.0, 0.0, 0.0, 0.0, 0.0, 0.0, 0.0, -0.18055555555555555, -0.17962962962962964, -0.17962962962962964, -0.1787037037037037, -0.1787037037037037, -0.17777777777777778, -0.17777777777777778, -0.17777777777777778, -0.17777777777777778, -0.17777777777777778, -0.17777777777777778, -0.17777777777777778, -0.17777777777777778, -0.17777777777777778, -0.17777777777777778, -0.17777777777777778, -0.17777777777777778, -0.17777777777777778, -0.17777777777777778, -0.17777777777777778, -0.17777777777777778, -0.17777777777777778, -0.17777777777777778, -0.17777777777777778, -0.17777777777777778, -0.17777777777777778, -0.17777777777777778, -0.17777777777777778, -0.17777777777777778, -0.17777777777777778, -0.17777777777777778, -0.17685185185185184]",645
-0.3,-0.3,1.0,67.0,"[0.0, 0.0, 0.0, 0.0, 0.0, 0.0, 0.0, 0.0, 0.0, 0.0, -0.22592592592592592, -0.22685185185185186, -0.22685185185185186, -0.22685185185185186, -0.22685185185185186, -0.22685185185185186, -0.22777777777777777, -0.22685185185185186, -0.225, -0.2212962962962963, -0.21851851851851853, -0.21574074074074073, -0.21296296296296297, -0.2111111111111111, -0.2111111111111111, -0.2101851851851852, -0.2101851851851852, -0.2101851851851852, -0.2101851851851852, -0.2101851851851852, -0.2101851851851852, -0.2074074074074074, -0.2064814814814815, -0.20462962962962963, -0.20462962962962963, -0.2037037037037037, -0.20277777777777778, -0.20277777777777778, -0.20277777777777778, -0.20277777777777778, -0.20277777777777778, -0.20277777777777778, -0.20277777777777778, -0.20277777777777778, -0.20277777777777778, -0.20277777777777778, -0.20277777777777778, -0.20277777777777778, -0.20277777777777778, -0.20277777777777778, -0.20277777777777778, -0.20277777777777778, -0.20185185185185187]","[0.0, 0.0, 0.0, 0.0, 0.0, 0.0, 0.0, 0.0, 0.0, 0.0, 0.14351851851851852, 0.14351851851851852, 0.14351851851851852, 0.14351851851851852, 0.14351851851851852, 0.14351851851851852, 0.14722222222222223, 0.14814814814814814, 0.14907407407407408, 0.15, 0.15185185185185185, 0.15185185185185185, 0.15185185185185185, 0.15092592592592594, 0.15, 0.14814814814814814, 0.14629629629629629, 0.14537037037037037, 0.14444444444444443, 0.14444444444444443, 0.14444444444444443, 0.14814814814814814, 0.14907407407407408, 0.15092592592592594, 0.1527777777777778, 0.1527777777777778, 0.1527777777777778, 0.1527777777777778, 0.1527777777777778, 0.1527777777777778, 0.1527777777777778, 0.1527777777777778, 0.1527777777777778, 0.1527777777777778, 0.1527777777777778, 0.1527777777777778, 0.1527777777777778, 0.1527777777777778, 0.1527777777777778, 0.1527777777777778, 0.1527777777777778, 0.1527777777777778, 0.1527777777777778]",645
0.3,-0.3,2.0,44.0,"[0.0, 0.0, 0.0, 0.0, 0.0, 0.0, 0.0, 0.0, 0.0, 0.0, 0.0, 0.0, 0.0, 0.0, 0.0, 0.0, 0.0, 0.0, 0.0, 0.0, 0.0, 0.0, 0.0, 0.0, 0.0, 0.0, 0.0, 0.0, 0.0, 0.0, 0.0, 0.0, 0.0, 0.0, 0.0, 0.0, 0.0, 0.0, 0.0, 0.0, 0.0, 0.0, 0.0, 0.0, 0.0, 0.0, 0.0, 0.0, 0.0, 0.0, 0.0, 0.0, 0.0, 0.0, 0.0, 0.009259259259259259, 0.008333333333333333, 0.008333333333333333, 0.008333333333333333, 0.008333333333333333, 0.008333333333333333, 0.005555555555555556, 0.004629629629629629, 0.004629629629629629, 0.004629629629629629, 0.003703703703703704, 0.002777777777777778, 0.002777777777777778, 0.001851851851851852, 0.000925925925925926, 0.000925925925925926, 0.000925925925925926, 0.001851851851851852, 0.002777777777777778, 0.003703703703703704, 0.004629629629629629, 0.006481481481481481, 0.006481481481481481, 0.007407407407407408, 0.008333333333333333, 0.009259259259259259, 0.010185185185185186, 0.011111111111111112, 0.012037037037037037, 0.012037037037037037, 0.012037037037037037, 0.012037037037037037, 0.013888888888888888, 0.013888888888888888, 0.014814814814814815, 0.016666666666666666, 0.017592592592592594, 0.018518518518518517, 0.019444444444444445, 0.020370370370370372, 0.020370370370370372, 0.022222222222222223, 0.024074074074074074, 0.024074074074074074, 0.025, 0.025925925925925925, 0.026851851851851852, 0.028703703703703703, 0.02962962962962963, 0.030555555555555555, 0.032407407407407406, 0.03333333333333333, 0.03425925925925926, 0.03518518518518519, 0.03611111111111111, 0.03611111111111111, 0.037037037037037035, 0.037037037037037035, 0.037037037037037035, 0.037037037037037035, 0.037037037037037035, 0.037037037037037035, 0.037037037037037035, 0.037037037037037035, 0.037037037037037035, 0.037037037037037035, 0.037037037037037035, 0.037037037037037035, 0.037037037037037035, 0.037037037037037035, 0.037037037037037035, 0.037037037037037035, 0.037037037037037035, 0.037037037037037035, 0.037037037037037035, 0.037037037037037035, 0.037037037037037035, 0.037037037037037035, 0.037037037037037035, 0.037037037037037035, 0.037037037037037035, 0.037037037037037035, 0.037037037037037035, 0.037037037037037035, 0.037037037037037035, 0.037037037037037035, 0.022222222222222223, -0.26944444444444443]","[0.0, 0.0, 0.0, 0.0, 0.0, 0.0, 0.0, 0.0, 0.0, 0.0, 0.0, 0.0, 0.0, 0.0, 0.0, 0.0, 0.0, 0.0, 0.0, 0.0, 0.0, 0.0, 0.0, 0.0, 0.0, 0.0, 0.0, 0.0, 0.0, 0.0, 0.0, 0.0, 0.0, 0.0, 0.0, 0.0, 0.0, 0.0, 0.0, 0.0, 0.0, 0.0, 0.0, 0.0, 0.0, 0.0, 0.0, 0.0, 0.0, 0.0, 0.0, 0.0, 0.0, 0.0, 0.0, 0.012962962962962963, 0.012962962962962963, 0.012962962962962963, 0.012962962962962963, 0.012962962962962963, 0.012962962962962963, 0.01574074074074074, 0.01574074074074074, 0.01574074074074074, 0.01574074074074074, 0.01574074074074074, 0.014814814814814815, 0.014814814814814815, 0.013888888888888888, 0.012962962962962963, 0.012037037037037037, 0.010185185185185186, 0.009259259259259259, 0.007407407407407408, 0.005555555555555556, 0.003703703703703704, 0.002777777777777778, 0.001851851851851852, 0.000925925925925926, -0.000925925925925926, -0.000925925925925926, -0.001851851851851852, -0.001851851851851852, -0.002777777777777778, -0.002777777777777778, -0.002777777777777778, -0.002777777777777778, -0.001851851851851852, -0.001851851851851852, -0.001851851851851852, -0.001851851851851852, -0.002777777777777778, -0.002777777777777778, -0.003703703703703704, -0.003703703703703704, -0.004629629629629629, -0.005555555555555556, -0.007407407407407408, -0.007407407407407408, -0.008333333333333333, -0.010185185185185186, -0.011111111111111112, -0.012037037037037037, -0.012962962962962963, -0.012962962962962963, -0.013888888888888888, -0.013888888888888888, -0.014814814814814815, -0.014814814814814815, -0.014814814814814815, -0.014814814814814815, -0.01574074074074074, -0.01574074074074074, -0.01574074074074074, -0.01574074074074074, -0.01574074074074074, -0.01574074074074074, -0.01574074074074074, -0.01574074074074074, -0.01574074074074074, -0.01574074074074074, -0.01574074074074074, -0.01574074074074074, -0.01574074074074074, -0.01574074074074074, -0.01574074074074074, -0.01574074074074074, -0.01574074074074074, -0.01574074074074074, -0.01574074074074074, -0.01574074074074074, -0.01574074074074074, -0.01574074074074074, -0.01574074074074074, -0.01574074074074074, -0.01574074074074074, -0.01574074074074074, -0.01574074074074074, -0.01574074074074074, -0.01574074074074074, -0.01574074074074074, -0.019444444444444445, -0.06574074074074074]",645
0.3,-0.3,3.0,1.0,"[0.0, -0.4583333333333333, -0.4583333333333333, -0.45925925925925926, -0.45925925925925926, -0.45925925925925926, -0.46111111111111114, -0.46111111111111114, -0.46296296296296297, -0.4648148148148148, -0.4685185185185185, -0.47314814814814815, -0.47685185185185186, -0.48148148148148145, -0.4888888888888889, -0.49537037037037035, -0.5009259259259259, -0.5074074074074074, -0.5148148148148148, -0.5212962962962963, -0.5268518518518519, -0.5314814814814814, -0.537962962962963, -0.5425925925925926, -0.5462962962962963, -0.5509259259259259, -0.5555555555555556, -0.5611111111111111, -0.5657407407407408, -0.5703703703703704, -0.575, -0.5777777777777777, -0.5777777777777777, -0.5777777777777777, -0.5777777777777777, -0.5777777777777777, -0.5777777777777777, -0.5777777777777777, -0.5777777777777777, -0.5777777777777777, -0.5777777777777777, -0.5777777777777777, -0.5777777777777777, -0.5777777777777777, -0.5777777777777777, -0.5777777777777777, -0.5777777777777777, -0.5777777777777777, -0.5777777777777777, -0.5805555555555556]","[0.0, -0.11944444444444445, -0.11944444444444445, -0.11851851851851852, -0.11851851851851852, -0.11851851851851852, -0.11851851851851852, -0.11851851851851852, -0.11944444444444445, -0.12037037037037036, -0.12129629629629629, -0.12314814814814815, -0.12407407407407407, -0.125, -0.1259259259259259, -0.12685185185185185, -0.12685185185185185, -0.12685185185185185, -0.12777777777777777, -0.12777777777777777, -0.12777777777777777, -0.12777777777777777, -0.12777777777777777, -0.12777777777777777, -0.12777777777777777, -0.12777777777777777, -0.12777777777777777, -0.12685185185185185, -0.12777777777777777, -0.12777777777777777, -0.12777777777777777, -0.1287037037037037, -0.1287037037037037, -0.1287037037037037, -0.1287037037037037, -0.1287037037037037, -0.1287037037037037, -0.1287037037037037, -0.1287037037037037, -0.1287037037037037, -0.1287037037037037, -0.1287037037037037, -0.1287037037037037, -0.1287037037037037, -0.1287037037037037, -0.1287037037037037, -0.1287037037037037, -0.1287037037037037, -0.1287037037037037, -0.1287037037037037]",645
-0.3,0.3,4.0,46.0,"[0.0, 0.0, 0.0, 0.0, 0.0, 0.0, 0.0, 0.0, 0.0, 0.0, 0.0, 0.0, 0.0, 0.0, 0.0, 0.0, 0.0, 0.0, 0.0, 0.0, 0.0, 0.0, 0.0, 0.0, 0.0, 0.0, 0.0, 0.0, 0.0, 0.0, 0.0, 0.0, 0.0, 0.0, 0.0, 0.0, 0.0, 0.0, 0.0, 0.0, 0.0, 0.0, 0.0, 0.0, 0.0, 0.0, 0.0, 0.0, -0.09907407407407408, -0.09907407407407408, -0.09722222222222222, -0.08981481481481482, -0.07962962962962963, -0.06851851851851852, -0.06018518518518518, -0.05185185185185185, -0.046296296296296294, -0.04259259259259259, -0.03981481481481482, -0.037037037037037035, -0.03611111111111111, -0.03611111111111111, -0.03611111111111111, -0.03611111111111111, -0.03611111111111111, -0.03611111111111111, -0.03611111111111111, -0.03611111111111111, -0.03611111111111111, -0.03611111111111111, -0.03611111111111111, -0.03611111111111111, -0.03611111111111111, -0.03611111111111111, -0.03611111111111111, -0.03611111111111111, -0.03611111111111111, -0.03333333333333333, -0.13148148148148148, -0.3990740740740741]","[0.0, 0.0, 0.0, 0.0, 0.0, 0.0, 0.0, 0.0, 0.0, 0.0, 0.0, 0.0, 0.0, 0.0, 0.0, 0.0, 0.0, 0.0, 0.0, 0.0, 0.0, 0.0, 0.0, 0.0, 0.0, 0.0, 0.0, 0.0, 0.0, 0.0, 0.0, 0.0, 0.0, 0.0, 0.0, 0.0, 0.0, 0.0, 0.0, 0.0, 0.0, 0.0, 0.0, 0.0, 0.0, 0.0, 0.0, 0.0, -0.024074074074074074, -0.025, -0.025, -0.024074074074074074, -0.021296296296296296, -0.018518518518518517, -0.01574074074074074, -0.012037037037037037, -0.008333333333333333, -0.004629629629629629, -0.001851851851851852, 0.000925925925925926, 0.001851851851851852, 0.001851851851851852, 0.001851851851851852, 0.001851851851851852, 0.001851851851851852, 0.001851851851851852, 0.001851851851851852, 0.001851851851851852, 0.001851851851851852, 0.001851851851851852, 0.001851851851851852, 0.001851851851851852, 0.001851851851851852, 0.001851851851851852, 0.001851851851851852, 0.001851851851851852, 0.001851851851851852, 0.003703703703703704, -0.019444444444444445, -0.09444444444444444]",645
-0.3,0.3,5.0,45.0,"[0.0, 0.0, 0.0, 0.0, 0.0, 0.0, 0.0, 0.0, 0.0, 0.0, 0.0, 0.0, -0.006481481481481481, -0.006481481481481481, -0.006481481481481481, -0.004629629629629629, -0.002777777777777778, 0.0, 0.001851851851851852, 0.004629629629629629, 0.007407407407407408, 0.009259259259259259, 0.012037037037037037, 0.016666666666666666, 0.021296296296296296, 0.025925925925925925, 0.032407407407407406, 0.037037037037037035, 0.04259259259259259, 0.046296296296296294, 0.049074074074074076, 0.05092592592592592, 0.05277777777777778, 0.05462962962962963, 0.05648148148148148, 0.06018518518518518, 0.06388888888888888, 0.06944444444444445, 0.07592592592592592, 0.0787037037037037, 0.0787037037037037, 0.0787037037037037, 0.0787037037037037, 0.0787037037037037, 0.0787037037037037, 0.0787037037037037, 0.0787037037037037, 0.0787037037037037, 0.0787037037037037, 0.0787037037037037, 0.0787037037037037, 0.03333333333333333, -0.31666666666666665]","[0.0, 0.0, 0.0, 0.0, 0.0, 0.0, 0.0, 0.0, 0.0, 0.0, 0.0, 0.0, -0.004629629629629629, -0.001851851851851852, 0.000925925925925926, 0.005555555555555556, 0.009259259259259259, 0.014814814814814815, 0.018518518518518517, 0.023148148148148147, 0.025925925925925925, 0.027777777777777776, 0.028703703703703703, 0.028703703703703703, 0.026851851851851852, 0.025925925925925925, 0.025, 0.024074074074074074, 0.024074074074074074, 0.025, 0.026851851851851852, 0.028703703703703703, 0.030555555555555555, 0.03333333333333333, 0.03611111111111111, 0.03888888888888889, 0.041666666666666664, 0.04351851851851852, 0.044444444444444446, 0.04537037037037037, 0.04537037037037037, 0.04537037037037037, 0.04537037037037037, 0.04537037037037037, 0.04537037037037037, 0.04537037037037037, 0.04537037037037037, 0.04537037037037037, 0.04537037037037037, 0.04537037037037037, 0.04537037037037037, 0.03518518518518519, -0.018518518518518517]",645
0.3,-0.3,6.0,1.0,"[0.0, 0.0, 0.0, 0.0, 0.0, 0.0, 0.0, 0.0, 0.0, 0.0, 0.0, 0.0, 0.0, 0.0, 0.0, 0.0, 0.0, 0.0, 0.0, 0.0, 0.0, 0.0, 0.0, 0.0, 0.0, -0.3851851851851852, -0.39537037037037037, -0.40370370370370373, -0.4111111111111111, -0.41759259259259257, -0.42407407407407405, -0.42777777777777776, -0.4287037037037037, -0.4287037037037037, -0.42777777777777776, -0.42592592592592593, -0.42314814814814816, -0.4212962962962963, -0.41759259259259257, -0.41574074074074074, -0.41388888888888886, -0.41388888888888886, -0.41388888888888886, -0.41388888888888886, -0.4166666666666667, -0.4203703703703704, -0.425, -0.4287037037037037, -0.4324074074074074, -0.43425925925925923, -0.4351851851851852, -0.4351851851851852, -0.4351851851851852, -0.4351851851851852, -0.4361111111111111, -0.43703703703703706, -0.4388888888888889, -0.44166666666666665, -0.44351851851851853, -0.4444444444444444, -0.4462962962962963, -0.44722222222222224, -0.45, -0.45, -0.45, -0.45, -0.45, -0.45, -0.45, -0.45, -0.45, -0.45, -0.45, -0.45, -0.45, -0.45, -0.45, -0.45, -0.45, -0.45, -0.45, -0.45, -0.45, -0.45, -0.45, -0.45, -0.5342592592592592, -0.5342592592592592, -0.5342592592592592, -0.5333333333333333, -0.5324074074074074, -0.5324074074074074, -0.5305555555555556, -0.5296296296296297, -0.5296296296296297, -0.5305555555555556, -0.5314814814814814, -0.5342592592592592, -0.5351851851851852, -0.5361111111111111, -0.537962962962963, -0.5388888888888889, -0.5398148148148149, -0.5425925925925926, -0.5435185185185185, -0.5462962962962963, -0.5472222222222223, -0.5481481481481482, -0.5481481481481482, -0.5481481481481482, -0.5481481481481482, -0.5481481481481482, -0.5481481481481482, -0.5481481481481482, -0.5481481481481482, -0.5481481481481482, -0.5481481481481482, -0.5481481481481482, -0.5481481481481482, -0.5481481481481482, -0.5481481481481482, -0.5425925925925926]","[0.0, 0.0, 0.0, 0.0, 0.0, 0.0, 0.0, 0.0, 0.0, 0.0, 0.0, 0.0, 0.0, 0.0, 0.0, 0.0, 0.0, 0.0, 0.0, 0.0, 0.0, 0.0, 0.0, 0.0, 0.0, -0.04351851851851852, -0.04722222222222222, -0.049074074074074076, -0.05092592592592592, -0.05185185185185185, -0.05092592592592592, -0.049074074074074076, -0.046296296296296294, -0.04259259259259259, -0.03888888888888889, -0.03333333333333333, -0.02962962962962963, -0.026851851851851852, -0.024074074074074074, -0.023148148148148147, -0.022222222222222223, -0.022222222222222223, -0.022222222222222223, -0.022222222222222223, -0.025, -0.025925925925925925, -0.026851851851851852, -0.027777777777777776, -0.028703703703703703, -0.02962962962962963, -0.030555555555555555, -0.030555555555555555, -0.030555555555555555, -0.03148148148148148, -0.03148148148148148, -0.03148148148148148, -0.032407407407407406, -0.032407407407407406, -0.032407407407407406, -0.032407407407407406, -0.032407407407407406, -0.032407407407407406, -0.03611111111111111, -0.03611111111111111, -0.03611111111111111, -0.03611111111111111, -0.03611111111111111, -0.03611111111111111, -0.03611111111111111, -0.03611111111111111, -0.03611111111111111, -0.03611111111111111, -0.03611111111111111, -0.03611111111111111, -0.03611111111111111, -0.03611111111111111, -0.03611111111111111, -0.03611111111111111, -0.03611111111111111, -0.03611111111111111, -0.03611111111111111, -0.03611111111111111, -0.03611111111111111, -0.03611111111111111, -0.03611111111111111, -0.03611111111111111, -0.25925925925925924, -0.2564814814814815, -0.2564814814814815, -0.25277777777777777, -0.2490740740740741, -0.24537037037037038, -0.23981481481481481, -0.23425925925925925, -0.22962962962962963, -0.22592592592592592, -0.22407407407407406, -0.2222222222222222, -0.2222222222222222, -0.2212962962962963, -0.22037037037037038, -0.22037037037037038, -0.21944444444444444, -0.21944444444444444, -0.21944444444444444, -0.21851851851851853, -0.2175925925925926, -0.21666666666666667, -0.21666666666666667, -0.21574074074074073, -0.21481481481481482, -0.21481481481481482, -0.21481481481481482, -0.21481481481481482, -0.21481481481481482, -0.21481481481481482, -0.21481481481481482, -0.21481481481481482, -0.21481481481481482, -0.21481481481481482, -0.21481481481481482, -0.21388888888888888]",645
-0.3,-0.3,7.0,69.0,"[0.0, 0.0, 0.0, 0.0, 0.0, 0.0, 0.0, 0.0, 0.0, 0.0, 0.0, 0.0, 0.0, 0.0, 0.0, 0.0, 0.0, 0.0, 0.0, 0.0, 0.0, 0.0, 0.0, 0.0, 0.0, 0.0, 0.0, 0.0, 0.0, 0.0, 0.0, 0.0, 0.0, 0.0, 0.0, 0.0, 0.0, 0.0, 0.0, 0.0, 0.0, 0.0, 0.0, 0.0, 0.0, 0.0, 0.0, 0.0, 0.0, 0.0, -0.2574074074074074, -0.25833333333333336, -0.25833333333333336, -0.25925925925925924, -0.2601851851851852, -0.25925925925925924, -0.25925925925925924, -0.25833333333333336, -0.2574074074074074, -0.2537037037037037, -0.25092592592592594, -0.24444444444444444, -0.24074074074074073, -0.23703703703703705, -0.2351851851851852, -0.23055555555555557, -0.22777777777777777, -0.22407407407407406, -0.22037037037037038, -0.21574074074074073, -0.21296296296296297, -0.20925925925925926, -0.20833333333333334, -0.20833333333333334, -0.2074074074074074, -0.2064814814814815, -0.2064814814814815, -0.20462962962962963, -0.20462962962962963, -0.2037037037037037, -0.2037037037037037, -0.20462962962962963, -0.20462962962962963, -0.20462962962962963, -0.20462962962962963, -0.20462962962962963, -0.20462962962962963, -0.20462962962962963, -0.20462962962962963, -0.20462962962962963, -0.20462962962962963, -0.2064814814814815]","[0.0, 0.0, 0.0, 0.0, 0.0, 0.0, 0.0, 0.0, 0.0, 0.0, 0.0, 0.0, 0.0, 0.0, 0.0, 0.0, 0.0, 0.0, 0.0, 0.0, 0.0, 0.0, 0.0, 0.0, 0.0, 0.0, 0.0, 0.0, 0.0, 0.0, 0.0, 0.0, 0.0, 0.0, 0.0, 0.0, 0.0, 0.0, 0.0, 0.0, 0.0, 0.0, 0.0, 0.0, 0.0, 0.0, 0.0, 0.0, 0.0, 0.0, 0.22870370370370371, 0.22962962962962963, 0.22962962962962963, 0.2324074074074074, 0.23425925925925925, 0.2361111111111111, 0.23703703703703705, 0.23703703703703705, 0.23703703703703705, 0.23703703703703705, 0.23703703703703705, 0.2361111111111111, 0.2361111111111111, 0.2351851851851852, 0.23425925925925925, 0.23333333333333334, 0.23333333333333334, 0.23425925925925925, 0.23425925925925925, 0.2361111111111111, 0.23703703703703705, 0.23796296296296296, 0.2388888888888889, 0.2388888888888889, 0.23981481481481481, 0.24166666666666667, 0.24259259259259258, 0.24537037037037038, 0.2462962962962963, 0.24814814814814815, 0.24814814814814815, 0.24814814814814815, 0.24814814814814815, 0.24814814814814815, 0.24814814814814815, 0.24814814814814815, 0.24814814814814815, 0.24814814814814815, 0.24814814814814815, 0.24814814814814815, 0.24814814814814815, 0.2462962962962963]",645
0.3,0.3,8.0,23.0,"[0.0, 0.0, 0.0, 0.0, 0.0, 0.0, 0.0, 0.0, 0.0, 0.0, 0.0, 0.0, 0.0, 0.0, 0.0, 0.0, 0.0, 0.0, 0.0, 0.0, 0.0, 0.0, 0.0, 0.0, 0.0, 0.0, 0.0, 0.0, 0.0, 0.0, 0.0, -0.15833333333333333, -0.1574074074074074, -0.15555555555555556, -0.15185185185185185, -0.14722222222222223, -0.1425925925925926, -0.1388888888888889, -0.13518518518518519, -0.13055555555555556, -0.12685185185185185, -0.12314814814814815, -0.12314814814814815, -0.12314814814814815, -0.12314814814814815, -0.12314814814814815, -0.12314814814814815, -0.12314814814814815, -0.12314814814814815, -0.12314814814814815, -0.12314814814814815]","[0.0, 0.0, 0.0, 0.0, 0.0, 0.0, 0.0, 0.0, 0.0, 0.0, 0.0, 0.0, 0.0, 0.0, 0.0, 0.0, 0.0, 0.0, 0.0, 0.0, 0.0, 0.0, 0.0, 0.0, 0.0, 0.0, 0.0, 0.0, 0.0, 0.0, 0.0, -0.2037037037037037, -0.2, -0.1962962962962963, -0.19166666666666668, -0.18611111111111112, -0.1814814814814815, -0.17685185185185184, -0.17222222222222222, -0.1685185185185185, -0.1648148148148148, -0.16203703703703703, -0.16111111111111112, -0.16111111111111112, -0.16111111111111112, -0.16111111111111112, -0.16111111111111112, -0.16111111111111112, -0.16111111111111112, -0.16111111111111112, -0.16111111111111112]",645
0.3,-0.3,9.0,1.0,"[0.0, 0.0, 0.0, 0.0, 0.0, 0.0, 0.0, 0.0, 0.0, 0.0, 0.0, 0.0, -0.31574074074074077, -0.325, -0.33240740740740743, -0.34444444444444444, -0.35833333333333334, -0.3731481481481482, -0.38796296296296295, -0.3990740740740741, -0.41203703703703703, -0.425, -0.43333333333333335, -0.44351851851851853, -0.45185185185185184, -0.45925925925925926, -0.46574074074074073, -0.46944444444444444, -0.4722222222222222, -0.47314814814814815, -0.47314814814814815, -0.4722222222222222, -0.46944444444444444, -0.4666666666666667, -0.46296296296296297, -0.45925925925925926, -0.4564814814814815, -0.4537037037037037, -0.45, -0.4462962962962963, -0.44537037037037036, -0.44537037037037036, -0.44537037037037036, -0.44537037037037036, -0.44537037037037036, -0.44537037037037036, -0.44537037037037036, -0.44537037037037036, -0.44537037037037036, -0.44537037037037036, -0.44537037037037036, -0.44537037037037036, -0.44537037037037036, -0.43703703703703706]","[0.0, 0.0, 0.0, 0.0, 0.0, 0.0, 0.0, 0.0, 0.0, 0.0, 0.0, 0.0, -0.08611111111111111, -0.08611111111111111, -0.08611111111111111, -0.08703703703703704, -0.08703703703703704, -0.08611111111111111, -0.08425925925925926, -0.0824074074074074, -0.0787037037037037, -0.07407407407407407, -0.07037037037037037, -0.06574074074074074, -0.06111111111111111, -0.05648148148148148, -0.05185185185185185, -0.04722222222222222, -0.041666666666666664, -0.037037037037037035, -0.032407407407407406, -0.026851851851851852, -0.021296296296296296, -0.01574074074074074, -0.010185185185185186, -0.004629629629629629, 0.0, 0.004629629629629629, 0.008333333333333333, 0.011111111111111112, 0.012962962962962963, 0.012962962962962963, 0.012962962962962963, 0.012962962962962963, 0.012962962962962963, 0.012962962962962963, 0.012962962962962963, 0.012962962962962963, 0.012962962962962963, 0.012962962962962963, 0.012962962962962963, 0.012962962962962963, 0.012962962962962963, 0.016666666666666666]",645
-0.3,-0.3,10.0,68.0,"[0.0, 0.0, 0.0, 0.0, 0.0, 0.0, 0.0, 0.0, 0.0, 0.0, 0.0, 0.0, 0.0, 0.0, 0.0, 0.0, 0.0, 0.0, 0.0, 0.0, 0.0, 0.0, 0.0, 0.0, 0.0, 0.0, 0.0, 0.0, 0.0, -0.10462962962962963, -0.10185185185185185, -0.10185185185185185, -0.10185185185185185, -0.10185185185185185, -0.10185185185185185, -0.10185185185185185, -0.10185185185185185, -0.10185185185185185, -0.10185185185185185, -0.10185185185185185, -0.10185185185185185, -0.10185185185185185, -0.10185185185185185, -0.10185185185185185, -0.09907407407407408]","[0.0, 0.0, 0.0, 0.0, 0.0, 0.0, 0.0, 0.0, 0.0, 0.0, 0.0, 0.0, 0.0, 0.0, 0.0, 0.0, 0.0, 0.0, 0.0, 0.0, 0.0, 0.0, 0.0, 0.0, 0.0, 0.0, 0.0, 0.0, 0.0, 0.21851851851851853, 0.21666666666666667, 0.21666666666666667, 0.21666666666666667, 0.21666666666666667, 0.21666666666666667, 0.21666666666666667, 0.21666666666666667, 0.21666666666666667, 0.21666666666666667, 0.21666666666666667, 0.21666666666666667, 0.21666666666666667, 0.21666666666666667, 0.21666666666666667, 0.2111111111111111]",645
-0.3,0.3,11.0,46.0,"[0.0, 0.0, 0.0, 0.0, 0.0, 0.0, 0.0, 0.0, 0.0, 0.0, 0.0, 0.0, 0.0, 0.0, 0.0, 0.0, 0.0, 0.0, 0.0, 0.0, 0.0, 0.0, 0.0, 0.0, 0.0, 0.0, 0.0, 0.037037037037037035, 0.03611111111111111, 0.03611111111111111, 0.03611111111111111, 0.03611111111111111, 0.03611111111111111, 0.03611111111111111, 0.03981481481481482, 0.044444444444444446, 0.049074074074074076, 0.053703703703703705, 0.05740740740740741, 0.062037037037037036, 0.06851851851851852, 0.0712962962962963, 0.0712962962962963, 0.0712962962962963, 0.0712962962962963, 0.0712962962962963, 0.0712962962962963, 0.0712962962962963, 0.0712962962962963, 0.0712962962962963, 0.0712962962962963, 0.0712962962962963, 0.0712962962962963, 0.07685185185185185, 0.026851851851851852, -0.11018518518518519, -0.19166666666666668]","[0.0, 0.0, 0.0, 0.0, 0.0, 0.0, 0.0, 0.0, 0.0, 0.0, 0.0, 0.0, 0.0, 0.0, 0.0, 0.0, 0.0, 0.0, 0.0, 0.0, 0.0, 0.0, 0.0, 0.0, 0.0, 0.0, 0.0, 0.006481481481481481, 0.006481481481481481, 0.006481481481481481, 0.006481481481481481, 0.006481481481481481, 0.006481481481481481, 0.009259259259259259, 0.010185185185185186, 0.011111111111111112, 0.012962962962962963, 0.013888888888888888, 0.013888888888888888, 0.013888888888888888, 0.012962962962962963, 0.012962962962962963, 0.012962962962962963, 0.012962962962962963, 0.012962962962962963, 0.012962962962962963, 0.012962962962962963, 0.012962962962962963, 0.012962962962962963, 0.012962962962962963, 0.012962962962962963, 0.012962962962962963, 0.012962962962962963, 0.011111111111111112, -0.007407407407407408, -0.03796296296296296, -0.05185185185185185]",645
0.3,0.3,12.0,23.0,"[0.0, 0.0, 0.0, 0.0, 0.0, 0.0, 0.0, 0.0, 0.0, 0.0, 0.0, 0.0, 0.0, 0.0, 0.0, 0.0, 0.0, 0.0, 0.0, 0.0, 0.0, 0.0, 0.0, 0.0, 0.0, 0.0, 0.0, 0.0, 0.0, 0.0, 0.0, 0.0, 0.0, 0.0, 0.0, 0.0, 0.0, 0.0, 0.0, 0.0, 0.0, 0.0, 0.0, 0.0, 0.0, -0.14537037037037037, -0.14629629629629629, -0.14629629629629629, -0.14629629629629629, -0.14629629629629629, -0.14351851851851852, -0.14074074074074075, -0.13796296296296295, -0.13703703703703704, -0.13703703703703704, -0.13703703703703704, -0.13703703703703704, -0.13703703703703704, -0.13703703703703704, -0.13703703703703704, -0.13703703703703704, -0.13703703703703704, -0.13703703703703704, -0.13518518518518519, -0.16203703703703703, -0.1962962962962963]","[0.0, 0.0, 0.0, 0.0, 0.0, 0.0, 0.0, 0.0, 0.0, 0.0, 0.0, 0.0, 0.0, 0.0, 0.0, 0.0, 0.0, 0.0, 0.0, 0.0, 0.0, 0.0, 0.0, 0.0, 0.0, 0.0, 0.0, 0.0, 0.0, 0.0, 0.0, 0.0, 0.0, 0.0, 0.0, 0.0, 0.0, 0.0, 0.0, 0.0, 0.0, 0.0, 0.0, 0.0, 0.0, -0.1425925925925926, -0.1425925925925926, -0.1425925925925926, -0.1425925925925926, -0.1388888888888889, -0.13518518518518519, -0.13240740740740742, -0.12962962962962962, -0.1287037037037037, -0.1287037037037037, -0.1287037037037037, -0.1287037037037037, -0.1287037037037037, -0.1287037037037037, -0.1287037037037037, -0.1287037037037037, -0.1287037037037037, -0.1287037037037037, -0.12222222222222222, -0.049074074074074076, 0.04814814814814815]",645
0.3,0.3,13.0,23.0,"[0.0, 0.0, 0.0, 0.0, 0.0, 0.0, 0.0, 0.0, 0.0, 0.0, 0.0, 0.0, 0.0, 0.0, 0.0, 0.0, 0.0, 0.0, 0.0, -0.03796296296296296, -0.041666666666666664, -0.041666666666666664, -0.04722222222222222, -0.05092592592592592, -0.053703703703703705, -0.05462962962962963, -0.05462962962962963, -0.05462962962962963, -0.05462962962962963, -0.05462962962962963, -0.05462962962962963, -0.05462962962962963, -0.05462962962962963, -0.05462962962962963, -0.05462962962962963, -0.05462962962962963, -0.05555555555555555, -0.06018518518518518, -0.11388888888888889, -0.1388888888888889, -0.16296296296296298]","[0.0, 0.0, 0.0, 0.0, 0.0, 0.0, 0.0, 0.0, 0.0, 0.0, 0.0, 0.0, 0.0, 0.0, 0.0, 0.0, 0.0, 0.0, 0.0, -0.1935185185185185, -0.1925925925925926, -0.1925925925925926, -0.19074074074074074, -0.18981481481481483, -0.18888888888888888, -0.18796296296296297, -0.18796296296296297, -0.18796296296296297, -0.18796296296296297, -0.18796296296296297, -0.18796296296296297, -0.18796296296296297, -0.18796296296296297, -0.18796296296296297, -0.18796296296296297, -0.18796296296296297, -0.18796296296296297, -0.1787037037037037, -0.037037037037037035, 0.03611111111111111, 0.11944444444444445]",645
-0.3,0.3,14.0,46.0,"[0.0, 0.12222222222222222, 0.1259259259259259, 0.1287037037037037, 0.13055555555555556, 0.13518518518518519, 0.1398148148148148, 0.14814814814814814, 0.15462962962962962, 0.16018518518518518, 0.16666666666666666, 0.17314814814814813, 0.17962962962962964, 0.18611111111111112, 0.19444444444444445, 0.2074074074074074, 0.2212962962962963, 0.23333333333333334, 0.24444444444444444, 0.2518518518518518, 0.25555555555555554, 0.25555555555555554, 0.24814814814814815, 0.23703703703703705, 0.22685185185185186, 0.21574074074074073, 0.2074074074074074, 0.2, 0.19537037037037036, 0.19166666666666668, 0.19074074074074074, 0.18981481481481483, 0.18703703703703703, 0.1824074074074074, 0.17777777777777778, 0.17314814814814813, 0.16944444444444445, 0.1685185185185185, 0.17037037037037037, 0.17592592592592593, 0.18055555555555555, 0.18611111111111112, 0.19166666666666668, 0.19814814814814816, 0.20185185185185187, 0.20185185185185187, 0.20185185185185187, 0.20185185185185187, 0.20185185185185187, 0.20185185185185187, 0.20185185185185187, 0.20185185185185187, 0.20185185185185187, 0.20462962962962963]","[0.0, -0.12222222222222222, -0.11388888888888889, -0.10740740740740741, -0.10092592592592593, -0.09444444444444444, -0.08981481481481482, -0.08333333333333333, -0.07777777777777778, -0.075, -0.0712962962962963, -0.06944444444444445, -0.06759259259259259, -0.06759259259259259, -0.06851851851851852, -0.06944444444444445, -0.0712962962962963, -0.0712962962962963, -0.07222222222222222, -0.0712962962962963, -0.0712962962962963, -0.0712962962962963, -0.06759259259259259, -0.06481481481481481, -0.062037037037037036, -0.058333333333333334, -0.05555555555555555, -0.05277777777777778, -0.05092592592592592, -0.049074074074074076, -0.04722222222222222, -0.046296296296296294, -0.044444444444444446, -0.04259259259259259, -0.041666666666666664, -0.040740740740740744, -0.03888888888888889, -0.037037037037037035, -0.03611111111111111, -0.03425925925925926, -0.03333333333333333, -0.032407407407407406, -0.030555555555555555, -0.02962962962962963, -0.028703703703703703, -0.028703703703703703, -0.028703703703703703, -0.028703703703703703, -0.028703703703703703, -0.028703703703703703, -0.028703703703703703, -0.028703703703703703, -0.028703703703703703, -0.027777777777777776]",645
-0.3,-0.3,15.0,69.0,"[0.0, 0.0, 0.0, 0.0, 0.0, 0.0, 0.0, 0.0, 0.0, 0.0, 0.0, 0.0, 0.0, 0.0, 0.0, 0.0, 0.0, 0.0, -0.29814814814814816, -0.29907407407407405, -0.30092592592592593, -0.30185185185185187, -0.3, -0.2962962962962963, -0.2916666666666667, -0.2833333333333333, -0.2740740740740741, -0.26296296296296295, -0.2490740740740741, -0.23333333333333334, -0.21574074074074073, -0.19814814814814816, -0.18333333333333332, -0.1675925925925926, -0.15462962962962962, -0.14537037037037037, -0.1398148148148148, -0.13796296296296295, -0.13703703703703704, -0.1388888888888889, -0.14074074074074075, -0.1425925925925926, -0.14351851851851852, -0.14351851851851852, -0.14351851851851852, -0.14351851851851852, -0.14351851851851852, -0.14351851851851852, -0.14351851851851852, -0.14351851851851852, -0.14351851851851852, -0.14351851851851852, -0.14351851851851852, -0.14351851851851852, -0.14351851851851852, -0.14351851851851852, -0.14444444444444443]","[0.0, 0.0, 0.0, 0.0, 0.0, 0.0, 0.0, 0.0, 0.0, 0.0, 0.0, 0.0, 0.0, 0.0, 0.0, 0.0, 0.0, 0.0, 0.24259259259259258, 0.24537037037037038, 0.25, 0.2537037037037037, 0.25925925925925924, 0.2638888888888889, 0.26851851851851855, 0.27314814814814814, 0.2777777777777778, 0.28055555555555556, 0.2814814814814815, 0.28055555555555556, 0.27685185185185185, 0.2722222222222222, 0.26851851851851855, 0.2638888888888889, 0.2611111111111111, 0.2611111111111111, 0.26296296296296295, 0.2657407407407407, 0.2712962962962963, 0.2759259259259259, 0.28055555555555556, 0.2851851851851852, 0.28703703703703703, 0.28703703703703703, 0.28703703703703703, 0.28703703703703703, 0.28703703703703703, 0.28703703703703703, 0.28703703703703703, 0.28703703703703703, 0.28703703703703703, 0.28703703703703703, 0.28703703703703703, 0.28703703703703703, 0.28703703703703703, 0.28703703703703703, 0.28888888888888886]",645
